timestamp, accuracy, acc_x, acc_y, acc_z, linear_acc_x, linear_acc_y, linear_acc_z, gyro_accuracy, gyro_x, gyro_y, gyro_z, heart_rate
1695104277688,3,4.5418005,4.2904096,6.991069,0.19393034,-0.49081135,-0.3878607,3,0.12095132,-1.46852,1.6016886,0
1695104277688,3,4.819528,4.7165775,6.6247563,0.19393034,-0.49081135,-0.3878607,3,0.12095132,-1.46852,1.6016886,0
1695104277689,3,5.1882353,4.8961425,6.38773,0.19393034,-0.49081135,-0.3878607,3,0.12095132,-1.46852,1.6016886,0
1695104277689,3,5.805939,4.9200845,6.325481,0.19393034,-0.49081135,-0.3878607,3,0.12095132,-1.46852,1.6016886,0
1695104277689,3,6.634333,4.7740383,6.291962,0.19393034,-0.49081135,-0.3878607,3,0.12095132,-1.46852,1.6016886,0
1695104277747,3,7.309498,4.1539397,5.681441,0.8810662,0.3854665,-0.8355764,3,-0.453262,-2.7940977,3.286455,0
1695104277747,3,7.4746976,3.4811692,5.2624555,0.8810662,0.3854665,-0.8355764,3,-0.453262,-2.7940977,3.286455,0
1695104277748,3,7.551312,2.8993783,5.130774,0.8810662,0.3854665,-0.8355764,3,-0.453262,-2.7940977,3.286455,0
1695104277748,3,7.5944076,2.1308396,4.8602295,0.8810662,0.3854665,-0.8355764,3,-0.453262,-2.7940977,3.286455,0
1695104277748,3,7.539341,1.7717092,4.8506527,0.8810662,0.3854665,-0.8355764,3,-0.453262,-2.7940977,3.286455,0
1695104277749,3,7.603985,1.0893618,4.6279917,0.8810662,0.3854665,-0.8355764,3,-0.453262,-2.7940977,3.286455,0
1695104277755,3,7.66384,0.8834604,4.307169,0.89543146,-1.8818425,-1.3623008,3,-1.1093313,-3.2302554,4.382347,0
1695104277781,3,7.905654,0.78050977,3.8498764,0.6512229,-2.2768857,-1.4077905,3,-1.1227703,-3.1948252,4.397008,0
1695104277781,3,7.991845,0.545878,3.4572272,0.6512229,-2.2768857,-1.4077905,3,-1.1227703,-3.1948252,4.397008,0
1695104277786,3,8.331821,0.10534488,3.1747115,0.36152446,-1.8890251,-1.8148049,3,-1.2950343,-3.0592132,4.3432517,0
1695104277794,3,8.552089,-0.35913026,2.6503813,0.15562311,-1.7070658,-1.9847932,3,-1.4501941,-2.9749138,4.287052,0
1695104277805,3,8.645462,-0.9840169,2.4779987,0.272939,-1.7884687,-2.0757728,3,-1.5931365,-2.8185322,4.1648793,0
1695104277853,3,8.74123,-2.1045034,2.2337902,0.272939,-1.7884687,-2.0757728,3,-1.690875,-2.5900686,3.9681807,0
1695104277853,3,8.9279785,-3.7541082,1.7741034,0.272939,-1.7884687,-2.0757728,3,-1.690875,-2.5900686,3.9681807,0
1695104277854,3,9.14585,-4.3119574,1.1971009,0.272939,-1.7884687,-2.0757728,3,-1.690875,-2.5900686,3.9681807,0
1695104277855,3,9.081207,-4.594473,0.6440403,0.23223756,-3.8043866,-2.8538885,3,-1.2815952,-1.5247196,2.8026497,0
1695104277853,3,8.887277,-2.918532,2.0398598,0.272939,-1.7884687,-2.0757728,3,-1.690875,-2.5900686,3.9681807,0
1695104277868,3,9.198523,-5.023035,0.41180268,0.23223756,-3.8043866,-2.8538885,3,-1.2815952,-1.5247196,2.8026497,0
1695104277875,3,9.119514,-5.2026005,0.35913026,0.11971009,-3.7565024,-3.2441432,3,-1.1093313,-1.3377949,2.5583036,0
1695104277885,3,9.16261,-5.497087,0.59855044,0.20350714,-3.8786068,-3.3183637,3,-0.9309586,-1.1777482,2.3237314,0
1695104277895,3,9.119514,-5.7269306,0.7637503,0.10295067,-3.7445314,-3.205836,3,-0.77457714,-1.0152581,2.0793853,0
1695104277905,3,8.865729,-5.8634,0.7206547,0.1364695,-3.7972038,-2.8275523,3,-0.593761,-0.86009824,1.8203784,0
1695104277954,3,8.619126,-5.8466406,0.58897364,0.088585466,-3.775656,-2.5187001,3,-0.40317106,-0.7122689,1.5601498,0
1695104277955,3,8.267179,-5.8634,0.44771573,0.088585466,-3.775656,-2.5187001,3,-0.40317106,-0.7122689,1.5601498,0
1695104277955,3,8.087613,-5.899313,0.47405192,0.088585466,-3.775656,-2.5187001,3,-0.40317106,-0.7122689,1.5601498,0
1695104277956,3,7.8984714,-5.722142,0.40462008,0.088585466,-3.775656,-2.5187001,3,-0.40317106,-0.7122689,1.5601498,0
1695104277956,3,7.9343843,-5.6910176,0.40940848,0.088585466,-3.775656,-2.5187001,3,-0.40317106,-0.7122689,1.5601498,0
1695104277969,3,8.087613,-5.5617304,0.58418524,-1.0630256,-2.834735,-2.3247697,3,0.16615535,-0.1282817,0.58032197,0
1695104277983,3,8.214506,-5.4659624,0.6679823,-1.0031705,-2.6743233,-2.2529438,3,0.18203785,-0.1001819,0.44715336,0
1695104277985,3,8.468291,-5.449203,0.8403648,-0.830788,-2.4372973,-2.018312,3,0.17470746,-0.087964594,0.31031954,0
1695104277995,3,8.549694,-5.231331,0.9959879,-0.6823475,-2.2337902,-1.8770541,3,0.16249016,-0.052534413,0.1600467,0
1695104278051,3,8.532935,-5.2026005,1.1133038,-0.4141969,-2.1332338,-1.6496049,3,0.16126843,0.014660766,-0.013439035,0
1695104278052,3,8.664616,-5.070919,1.1971009,-0.4141969,-2.1332338,-1.6496049,3,0.16126843,0.014660766,-0.013439035,0
1695104278052,3,8.74123,-4.903325,1.0821792,-0.4141969,-2.1332338,-1.6496049,3,0.16126843,0.014660766,-0.013439035,0
1695104278053,3,8.858546,-4.721366,1.1372458,-0.4141969,-2.1332338,-1.6496049,3,0.16126843,0.014660766,-0.013439035,0
1695104278053,3,8.985439,-4.7046065,1.2449849,-0.4141969,-2.1332338,-1.6496049,3,0.16126843,0.014660766,-0.013439035,0
1695104278062,3,8.920795,-4.6136265,1.4293385,-0.0023942017,-1.2306197,-1.1827357,3,0.21380283,0.35430184,-1.0005972,0
1695104278066,3,9.074024,-4.6662993,1.5921441,0.11252748,-1.2330139,-1.0630256,3,0.2602286,0.45081854,-1.2620476,0
1695104278075,3,9.035717,-4.5992613,1.6448165,0.02873042,-1.1851299,-0.8762778,3,0.33964106,0.56321776,-1.5699236,0
1695104278085,3,9.054871,-4.510676,1.5586253,0.1604115,-1.3072342,-0.7230489,3,0.43982297,0.689056,-1.9291124,0
1695104278095,3,9.217676,-4.3406878,1.352724,0.08619126,-1.352724,-0.7038953,3,0.56321776,0.83199847,-2.334727,0
1695104278151,3,9.390059,-4.098873,1.5729905,0.074220255,-1.3814543,-0.82360536,3,0.6939429,1.0091494,-2.7855456,0
1695104278152,3,9.555259,-3.8283286,1.8459295,0.074220255,-1.3814543,-0.82360536,3,0.6939429,1.0091494,-2.7855456,0
1695104278152,3,9.753978,-3.7684734,2.3822308,0.074220255,-1.3814543,-0.82360536,3,0.6939429,1.0091494,-2.7855456,0
1695104278153,3,9.797073,-3.5529952,2.6024973,0.074220255,-1.3814543,-0.82360536,3,0.6939429,1.0091494,-2.7855456,0
1695104278153,3,9.713276,-3.0573955,2.432509,0.074220255,-1.3814543,-0.82360536,3,0.6939429,1.0091494,-2.7855456,0
1695104278161,3,9.617508,-2.60968,2.1452048,0.59615624,-1.8411411,-0.31603462,3,1.7482964,2.1881194,-5.5051174,0
1695104278167,3,9.246407,-2.0685902,2.2050598,0.49559975,-1.8124107,-0.6655881,3,1.9437732,2.5057693,-6.0133576,0
1695104278176,3,9.244013,-1.3335704,2.396596,0.4141969,-1.8914193,-1.1563994,3,2.080607,2.7623327,-6.4067545,0
1695104278186,3,9.270349,-0.7326257,2.4756045,0.09816227,-1.9321208,-1.3192052,3,2.117259,2.9651399,-6.67187,0
1695104278196,3,9.069236,-0.062249243,2.7246015,0.21308395,-1.8746599,-1.3814543,3,2.094046,3.177721,-6.8343606,0
1695104278251,3,8.7053175,0.5650316,2.9855695,0.37828386,-1.8291701,-1.5035586,3,2.0512855,3.4379497,-6.9565334,0
1695104278251,3,8.406042,1.0055647,3.1747115,0.37828386,-1.8291701,-1.5035586,3,2.0512855,3.4379497,-6.9565334,0
1695104278252,3,8.111555,1.4700398,3.1124623,0.37828386,-1.8291701,-1.5035586,3,2.0512855,3.4379497,-6.9565334,0
1695104278252,3,7.28795,1.9776106,2.6360161,0.37828386,-1.8291701,-1.5035586,3,2.0512855,3.4379497,-6.9565334,0
1695104278252,3,6.3566055,2.5594015,2.3056161,0.37828386,-1.8291701,-1.5035586,3,2.0512855,3.4379497,-6.9565334,0
1695104278262,3,4.9057193,3.040636,2.5139117,0.007182605,-2.1188686,-2.4947581,3,1.5381587,4.819727,-6.390872,0
1695104278267,3,3.5098996,3.2944214,3.0119057,-0.40940848,-2.0757728,-3.0621839,3,1.4086553,5.1239376,-6.133087,0
1695104278277,3,0.8690952,4.697424,4.343082,-1.2856863,-2.0925324,-3.0909145,3,1.2339478,5.241224,-5.805663,0
1695104278286,3,-0.51714754,5.439626,4.7668557,-2.0590134,-2.27928,-2.8179753,3,1.0751228,5.1520376,-5.3829446,0
1695104278296,3,-1.4197617,6.0262055,5.058948,-3.98874,-1.2904748,-1.70946,3,0.8405506,4.7940702,-4.714658,0
1695104278351,3,-1.2593501,8.76996,6.1626754,-4.795586,-0.8283938,-1.4389153,3,0.689056,4.089132,-3.8704422,0
1695104278351,3,-1.2306197,10.737994,6.64391,-4.795586,-0.8283938,-1.4389153,3,0.689056,4.089132,-3.8704422,0
1695104278352,3,-0.50038815,12.210428,6.9647326,-4.795586,-0.8283938,-1.4389153,3,0.689056,4.089132,-3.8704422,0
1695104278352,3,-0.15562311,12.832921,7.132327,-4.795586,-0.8283938,-1.4389153,3,0.689056,4.089132,-3.8704422,0
1695104278350,3,-1.364695,7.1849995,5.5641246,-4.795586,-0.8283938,-1.4389153,3,0.689056,4.089132,-3.8704422,0
1695104278368,3,0.37349546,13.000515,7.28795,-2.7341783,5.2385135,0.44532153,3,0.26389378,0.2932153,0.46914452,0
1695104278368,3,1.0702082,12.272678,7.477092,-2.7341783,5.2385135,0.44532153,3,0.26389378,0.2932153,0.46914452,0
1695104278377,3,1.508347,10.805033,7.445967,-1.7956513,5.985504,0.79487497,3,-0.34330627,-0.72692966,1.7104226,0
1695104278386,3,1.5873557,9.186552,7.0341644,-1.1875241,5.279215,0.9888053,3,-0.61208695,-1.0641272,2.13925,0
1695104278396,3,1.7477672,7.771579,6.7708025,-0.94810385,3.8857894,0.9504981,3,-0.7635816,-1.3451253,2.4495697,0
1695104278452,3,1.8028339,6.457162,6.1219735,-1.0630256,2.3511062,0.5243302,3,-0.8552113,-1.632232,2.734233,0
1695104278452,3,2.0590134,5.7724204,5.74369,-1.0630256,2.3511062,0.5243302,3,-0.8552113,-1.632232,2.734233,0
1695104278453,3,2.348712,5.544971,5.8203044,-1.0630256,2.3511062,0.5243302,3,-0.8552113,-1.632232,2.734233,0
1695104278453,3,3.6870706,6.4739213,6.373365,-1.0630256,2.3511062,0.5243302,3,-0.8552113,-1.632232,2.734233,0
1695104278453,3,3.086126,5.9184666,5.889736,-1.0630256,2.3511062,0.5243302,3,-0.8552113,-1.632232,2.734233,0
1695104278466,3,3.9815574,6.375759,6.1195793,-1.115698,-0.14844051,-0.5602432,3,-1.128879,-3.0616567,4.8624873,0
1695104278468,3,4.5082817,5.6359506,5.485116,-1.115698,-0.14844051,-0.5602432,3,-1.128879,-3.0616567,4.8624873,0
1695104278478,3,5.2959743,4.7405195,5.2361193,-1.0031705,0.7733272,-0.19393034,3,-1.5406022,-3.6004398,5.466022,0
1695104278487,3,6.50744,3.8067808,4.6782703,-0.90021986,0.32800564,-0.7326257,3,-1.5406022,-3.6004398,5.466022,0
1695104278497,3,7.0365586,2.9400797,4.355053,-0.61291564,-0.16519992,-0.8523358,3,-1.78617,-3.7360518,5.616295,0
1695104278554,3,6.981492,2.0685902,4.2640734,0.20350714,-0.7493851,-1.2880806,3,-1.9181169,-3.7201693,5.5991907,0
1695104278555,3,7.845799,1.2976574,3.86903,0.20350714,-0.7493851,-1.2880806,3,-1.9181169,-3.7201693,5.5991907,0
1695104278556,3,8.365341,0.61770403,3.0885203,0.20350714,-0.7493851,-1.2880806,3,-1.9181169,-3.7201693,5.5991907,0
1695104278556,3,8.487445,-0.6847417,2.9879637,0.20350714,-0.7493851,-1.2880806,3,-1.9181169,-3.7201693,5.5991907,0
1695104278557,3,8.537724,-1.0965444,2.8921957,0.20350714,-0.7493851,-1.2880806,3,-1.9181169,-3.7201693,5.5991907,0
1695104278555,3,8.202535,0.92176765,3.3375173,0.20350714,-0.7493851,-1.2880806,3,-1.9181169,-3.7201693,5.5991907,0
1695104278570,3,8.573636,-1.484405,2.7509377,0.047884032,-2.135628,-1.7860745,3,-2.0818288,-2.4874432,4.7989573,0
1695104278577,3,8.652645,-2.099715,2.5689783,-0.08619126,-2.0135236,-1.6759412,3,-2.0305161,-2.2382102,4.471534,0
1695104278587,3,8.722076,-3.071761,2.2720973,-0.19393034,-1.8914193,-1.6136919,3,-1.953547,-1.9779817,4.120897,0
1695104278597,3,8.889671,-3.7588966,2.1763294,-0.23463176,-1.9297266,-1.5634137,3,-1.858252,-1.7201965,3.7824776,0
1695104278650,3,8.827422,-4.173094,2.0853498,-0.21787235,-2.5450363,-1.7118542,3,-1.7214183,-1.5406022,3.431841,0
1695104278651,3,8.784326,-4.8506527,1.7621324,-0.21787235,-2.5450363,-1.7118542,3,-1.7214183,-1.5406022,3.431841,0
1695104278651,3,8.655039,-5.317522,1.3814543,-0.21787235,-2.5450363,-1.7118542,3,-1.7214183,-1.5406022,3.431841,0
1695104278652,3,8.401254,-6.1387334,1.0103531,-0.21787235,-2.5450363,-1.7118542,3,-1.7214183,-1.5406022,3.431841,0
1695104278652,3,8.154651,-6.6630635,0.33758244,-0.21787235,-2.5450363,-1.7118542,3,-1.7214183,-1.5406022,3.431841,0
1695104278661,3,7.819463,-7.0126166,-0.0047884034,-0.5650316,-3.9336734,-2.2816741,3,-0.36163223,-0.35430184,1.7116444,0
1695104278671,3,8.161834,-6.8905125,0.39025488,-0.78769237,-4.268862,-2.885013,3,0.02321288,-0.12217305,1.4025466,0
1695104278677,3,9.200917,-6.4619503,0.6751649,-1.0893618,-4.43885,-3.1842883,3,0.39095375,0.09773844,1.1154399,0
1695104278688,3,9.694122,-5.8681884,1.0295067,-0.7158663,-4.177882,-2.7581203,3,0.7318166,0.30298916,0.8197812,0
1695104278697,3,9.627085,-6.232107,1.1755531,0.36152446,-3.643975,-2.4947581,3,1.0494665,0.48380527,0.45081854,0
1695104278749,3,8.341399,-6.88333,0.90979666,0.8834604,-2.954445,-2.1332338,3,1.2938126,0.6243043,0.04642576,0
1695104278750,3,8.173804,-6.009446,1.4891934,0.8834604,-2.954445,-2.1332338,3,1.2938126,0.6243043,0.04642576,0
1695104278750,3,8.2169,-5.0397944,2.3439236,0.8834604,-2.954445,-2.1332338,3,1.2938126,0.6243043,0.04642576,0
1695104278750,3,7.9607205,-3.86903,2.7102363,0.8834604,-2.954445,-2.1332338,3,1.2938126,0.6243043,0.04642576,0
1695104278751,3,7.955932,-3.083732,3.052607,0.8834604,-2.954445,-2.1332338,3,1.2938126,0.6243043,0.04642576,0
1695104278776,3,8.767567,-1.8818425,3.9504328,-0.7613561,-1.2569559,-0.92416185,3,2.157576,1.070236,-1.9339994,0
1695104278780,3,9.059659,-1.3479356,4.9200845,-0.45010993,-0.1316811,-0.4333505,3,1.9938642,0.98715824,-2.5607471,0
1695104278776,3,8.279149,-2.396596,3.4045548,-0.7613561,-1.2569559,-0.92416185,3,2.157576,1.070236,-1.9339994,0
1695104278788,3,9.3661175,-0.51714754,5.2480903,0.02633622,0.16759412,0.01436521,3,1.91323,0.8894198,-2.9064968,0
1695104278797,3,9.718064,0.29927522,5.106832,0.30406362,0.4285621,0.8834604,3,1.7592919,0.766025,-3.2339206,0
1695104278855,3,9.49301,0.1340753,3.7421372,0.59615624,1.0271125,1.1468226,3,1.6701056,0.6988298,-3.5686748,0
1695104278855,3,9.3661175,0.6727707,4.1946416,0.59615624,1.0271125,1.1468226,3,1.6701056,0.6988298,-3.5686748,0
1695104278854,3,9.727641,0.33758244,4.644751,0.59615624,1.0271125,1.1468226,3,1.6701056,0.6988298,-3.5686748,0
1695104278883,3,9.306262,0.63206923,3.9959226,0.6799533,0.7326257,-0.50996494,3,1.5076154,0.4447099,-4.6022587,0
1695104278884,3,9.208099,0.11731588,3.6367924,0.6799533,0.7326257,-0.50996494,3,1.5076154,0.4447099,-4.6022587,0
1695104278884,3,8.853758,-0.4141969,3.5529952,0.6799533,0.7326257,-0.50996494,3,1.5076154,0.4447099,-4.6022587,0
1695104278884,3,8.511387,-0.2657564,3.2920272,0.6799533,0.7326257,-0.50996494,3,1.5076154,0.4447099,-4.6022587,0
1695104278885,3,8.303091,-0.17238252,3.0909145,0.6799533,0.7326257,-0.50996494,3,1.5076154,0.4447099,-4.6022587,0
1695104278888,3,8.073248,0.2873042,2.932897,-0.18914193,-1.6136919,-1.0151415,3,0.6267477,0.62796944,-4.8588223,0
1695104278898,3,7.9008656,0.7637503,3.0502129,-0.31364042,-1.9416976,-1.2330139,3,0.6169739,0.8393288,-4.721988,0
1695104278959,3,7.7093296,1.0821792,3.3782187,-0.45489833,-1.8171991,-1.4173675,3,0.61086524,1.0800097,-4.5533895,0
1695104278959,3,7.433996,1.6184803,3.7684734,-0.45489833,-1.8171991,-1.4173675,3,0.61086524,1.0800097,-4.5533895,0
1695104278959,3,7.062895,2.3295584,4.1132383,-0.45489833,-1.8171991,-1.4173675,3,0.61086524,1.0800097,-4.5533895,0
1695104278960,3,6.528988,3.110068,4.378995,-0.45489833,-1.8171991,-1.4173675,3,0.61086524,1.0800097,-4.5533895,0
1695104278960,3,6.1387334,3.9552212,4.5561657,-0.45489833,-1.8171991,-1.4173675,3,0.61086524,1.0800097,-4.5533895,0
1695104278960,3,5.9567738,4.5274353,4.5681367,-0.45489833,-1.8171991,-1.4173675,3,0.61086524,1.0800097,-4.5533895,0
1695104278978,3,5.734113,4.912902,4.6351743,-1.1923125,0.019153614,-0.39743748,3,0.4092797,1.8606955,-3.3560936,0
1695104278972,3,5.901707,4.805163,4.6279917,-1.2785037,-0.23463176,-0.29209262,3,0.49235737,1.8301523,-3.4477234,0
1695104278989,3,5.5401826,4.9464207,4.596867,-1.0223241,0.05746084,-0.4333505,3,0.32498032,1.9144517,-3.281568,0
1695104278998,3,5.427655,5.058948,4.584896,-0.8762778,-0.12928689,-0.5530606,3,0.23701571,2.0024164,-3.2033772,0
1695104279049,3,5.1906295,5.449203,4.5298295,-0.8571242,-0.2801216,-0.6775591,3,0.12950343,2.0842721,-3.1325169,0
1695104279050,3,4.5394063,6.3206925,5.121197,-0.8571242,-0.2801216,-0.6775591,3,0.12950343,2.0842721,-3.1325169,0
1695104279050,3,4.4244847,6.6056023,5.0637364,-0.8571242,-0.2801216,-0.6775591,3,0.12950343,2.0842721,-3.1325169,0
1695104279062,3,4.175488,6.8569937,4.9081135,-0.9648633,0.48841715,-0.51714754,3,-0.33841935,2.2418754,-2.864958,0
1695104279062,3,4.4819455,6.7708025,4.996699,-0.9648633,0.48841715,-0.51714754,3,-0.33841935,2.2418754,-2.864958,0
1695104279063,3,3.7780502,7.0605006,5.00867,-0.9648633,0.48841715,-0.51714754,3,-0.33841935,2.2418754,-2.864958,0
1695104279070,3,3.2202013,7.386112,5.401319,-0.4189853,0.6464345,-1.1252748,3,-0.61453044,2.2321017,-2.6902506,0
1695104279079,3,2.4875755,7.491457,5.973533,-0.51714754,0.7637503,-1.1563994,3,-0.66950834,2.2467623,-2.702468,0
1695104279089,3,1.7429788,7.3789296,6.4308257,-0.7661445,1.0175357,-0.89543146,3,-0.7098254,2.1954496,-2.7085764,0
1695104279098,3,0.8834604,6.88333,6.993463,-1.1587936,1.055843,-0.45968673,3,-0.7122689,2.0793853,-2.6829202,0
1695104279151,3,-0.08140286,6.244078,7.2687964,-1.6184803,0.90021986,-0.11252748,3,-0.65484756,1.9291124,-2.597399,0
1695104279151,3,-1.043872,5.949591,7.192182,-1.6184803,0.90021986,-0.11252748,3,-0.65484756,1.9291124,-2.597399,0
1695104279152,3,-1.5155296,6.126762,7.297527,-1.6184803,0.90021986,-0.11252748,3,-0.65484756,1.9291124,-2.597399,0
1695104279152,3,-1.5370775,7.101202,7.821857,-1.6184803,0.90021986,-0.11252748,3,-0.65484756,1.9291124,-2.597399,0
1695104279153,3,-0.830788,8.688558,7.771579,-1.6184803,0.90021986,-0.11252748,3,-0.65484756,1.9291124,-2.597399,0
1695104279162,3,-0.18195933,9.986216,7.1227503,-3.6343982,0.4333505,0.94570965,3,0.61941737,-0.065973446,-0.29077184,0
1695104279170,3,0.38067806,10.469844,6.4787097,-2.8107927,1.9728222,0.90740246,3,0.77213365,-0.57910025,0.49846604,0
1695104279179,3,0.81642276,11.262324,6.337452,-2.1068976,3.2154129,0.29927522,3,0.75747293,-1.0384709,1.3231341,0
1695104279189,3,1.5562311,11.168951,6.133945,-1.5610195,3.6391866,-0.2777274,3,0.55833083,-1.5027285,2.1649065,0
1695104279199,3,2.1691468,10.278308,7.1945763,-1.2641385,4.3885717,-0.33279404,3,0.16371189,-1.9975294,2.9859092,0
1695104279254,3,2.396596,8.566454,7.225701,-0.7398083,4.2999864,-0.47165772,3,-0.26633725,-2.4410176,3.63587,0
1695104279255,3,2.432509,6.7708025,6.078878,-0.7398083,4.2999864,-0.47165772,3,-0.26633725,-2.4410176,3.63587,0
1695104279255,3,2.4756045,5.671864,5.104438,-0.7398083,4.2999864,-0.47165772,3,-0.26633725,-2.4410176,3.63587,0
1695104279256,3,2.870648,4.733337,4.3718123,-0.7398083,4.2999864,-0.47165772,3,-0.26633725,-2.4410176,3.63587,0
1695104279256,3,3.4045548,4.24492,4.211401,-0.7398083,4.2999864,-0.47165772,3,-0.26633725,-2.4410176,3.63587,0
1695104279265,3,4.144363,4.2904096,4.3406878,-1.5849615,-1.3000516,-1.9393034,3,-1.1239921,-3.2107077,4.97,0
1695104279270,3,4.8219223,4.3598413,4.697424,-1.4197617,-1.5753847,-2.0278888,3,-1.1814134,-3.3353243,5.127603,0
1695104279279,3,5.6766524,3.9935284,5.1475334,-1.1707647,-1.2042835,-1.7932571,3,-1.3903292,-3.63587,5.3524013,0
1695104279291,3,6.6846113,3.052607,5.068525,-0.91219085,-0.82360536,-1.328782,3,-1.3903292,-3.63587,5.3524013,0
1695104279299,3,7.524976,2.006341,4.3119574,-0.6344634,-0.7038953,-0.6991069,3,-1.5479325,-3.8154643,5.4843483,0
1695104279354,3,8.0684595,1.3024458,4.0940847,0.009576807,-1.30484,-0.6392518,3,-1.5760323,-3.8472292,5.5356607,0
1695104279355,3,8.403648,0.7302315,4.3646297,0.009576807,-1.30484,-0.6392518,3,-1.5760323,-3.8472292,5.5356607,0
1695104279355,3,8.779537,0.39743748,4.0797195,0.009576807,-1.30484,-0.6392518,3,-1.5760323,-3.8472292,5.5356607,0
1695104279356,3,8.916007,0.2896984,3.8833952,0.009576807,-1.30484,-0.6392518,3,-1.5760323,-3.8472292,5.5356607,0
1695104279356,3,8.643068,0.22505496,3.5936968,0.009576807,-1.30484,-0.6392518,3,-1.5760323,-3.8472292,5.5356607,0
1695104279370,3,8.676587,-0.5674258,3.0621839,-0.08619126,-1.0630256,-0.6727707,3,-1.4013249,-2.8722885,5.064073,0
1695104279365,3,8.690952,-0.045489833,3.4117374,0.41180268,-1.5298948,-0.6440403,3,-1.3854424,-3.0921998,5.304754,0
1695104279379,3,8.7532015,-0.82360536,2.4708161,-0.22026655,-0.80924016,-0.59615624,3,-1.396438,-2.6267207,4.7904053,0
1695104279391,3,8.858546,-1.4317327,2.0207062,-0.37349546,-0.82121116,-0.6967127,3,-1.3732251,-2.3591616,4.4727554,0
1695104279400,3,8.956709,-2.135628,1.5849615,-0.39983168,-0.5410896,-1.0247183,3,-1.3182472,-2.1001546,4.08791,0
1695104279456,3,9.296685,-2.825158,1.2114661,-0.34715924,-0.7374141,-1.2737153,3,-1.219287,-1.8191566,3.6639698,0
1695104279456,3,9.454702,-3.5170822,0.82121116,-0.34715924,-0.7374141,-1.2737153,3,-1.219287,-1.8191566,3.6639698,0
1695104279457,3,9.603143,-4.4963107,0.47884035,-0.34715924,-0.7374141,-1.2737153,3,-1.219287,-1.8191566,3.6639698,0
1695104279457,3,9.734824,-5.403713,0.37828386,-0.34715924,-0.7374141,-1.2737153,3,-1.219287,-1.8191566,3.6639698,0
1695104279458,3,9.744401,-6.0285997,0.23702596,-0.34715924,-0.7374141,-1.2737153,3,-1.219287,-1.8191566,3.6639698,0
1695104279467,3,9.603143,-6.0142345,0.16519992,0.5410896,-3.083732,-2.1140802,3,-0.37995818,-0.4972443,1.3878858,0
1695104279472,3,9.435549,-5.932832,0.28491,0.5770026,-3.5242648,-2.171541,3,-0.16615535,-0.25045475,0.9859365,0
1695104279480,3,9.232041,-5.829881,0.47405192,0.45489833,-3.3734303,-2.1691468,3,0.02687807,-0.019547688,0.62796944,0
1695104279491,3,9.054871,-5.437232,0.60094464,0.30885202,-3.1962593,-2.0207062,3,0.18203785,0.19425514,0.3042109,0
1695104279500,3,8.765172,-5.104438,0.5506664,0.12210429,-2.992752,-1.7812861,3,0.2883284,0.37384954,0.009773844,0
1695104279551,3,8.607155,-4.39336,1.0031705,-0.04070143,-2.5785553,-1.673547,3,0.37140608,0.49968776,-0.27122417,0
1695104279551,3,8.678981,-4.3287168,1.352724,-0.04070143,-2.5785553,-1.673547,3,0.37140608,0.49968776,-0.27122417,0
1695104279551,3,8.765172,-3.9504328,1.7166426,-0.04070143,-2.5785553,-1.673547,3,0.37140608,0.49968776,-0.27122417,0
1695104279552,3,9.074024,-3.6846764,1.9177556,-0.04070143,-2.5785553,-1.673547,3,0.37140608,0.49968776,-0.27122417,0
1695104279550,3,8.607155,-4.6710877,0.81402856,-0.04070143,-2.5785553,-1.673547,3,0.37140608,0.49968776,-0.27122417,0
1695104279561,3,9.32781,-3.0238767,2.0733786,-0.33518824,-1.2665327,-0.7422025,3,0.7452556,0.88697636,-1.9486601,0
1695104279571,3,9.55047,-2.420538,2.3175871,-0.04070143,-1.0845734,-0.5746084,3,0.8539896,1.0140363,-2.375044,0
1695104279580,3,9.739613,-1.934515,2.7102363,0.18435353,-0.5770026,-0.48602295,3,0.97005403,1.1582005,-2.8674014,0
1695104279591,3,9.902418,-1.6184803,3.1531637,0.3854665,-0.12928689,-0.30166942,3,1.0995574,1.3084733,-3.4281757,0
1695104279600,3,9.998186,-1.1755531,3.2154129,0.5386954,0.06943185,-0.019153614,3,1.2339478,1.4636332,-4.0317106,0
1695104279611,3,9.880871,-0.92416185,3.2968156,0.6799533,0.16998832,0.34715924,3,1.3756685,1.6261233,-4.6425757,0
1695104279658,3,9.76116,-0.48602295,3.2273839,0.7517793,0.22505496,0.272939,3,1.5161675,1.8081611,-5.226563,0
1695104279659,3,9.605537,-0.10055647,3.1866825,0.7517793,0.22505496,0.272939,3,1.5161675,1.8081611,-5.226563,0
1695104279659,3,9.234436,0.2657564,3.3925838,0.7517793,0.22505496,0.272939,3,1.5161675,1.8081611,-5.226563,0
1695104279659,3,8.798691,0.61052144,3.3375173,0.7517793,0.22505496,0.272939,3,1.5161675,1.8081611,-5.226563,0
1695104279661,3,8.130709,1.1755531,3.2944214,-0.18435353,-0.5770026,-0.39983168,3,1.8924606,2.557082,-6.8526864,0
1695104279672,3,7.687782,1.733402,3.4021606,-0.18435353,-0.5770026,-0.39983168,3,1.8924606,2.557082,-6.8526864,0
1695104279680,3,7.2304893,2.1523874,3.5889084,-0.6799533,-0.61530983,-0.61052144,3,1.772731,2.6230555,-6.7659435,0
1695104279693,3,6.6870055,2.552219,3.5936968,-0.90261406,-0.6631939,-0.6655881,3,1.6016886,2.6682594,-6.549697,0
1695104279701,3,5.973533,2.9640217,3.6463692,-1.0582372,-0.90500826,-0.6560113,3,1.423316,2.7305677,-6.268699,0
1695104279750,3,5.365406,3.5410242,3.6990416,-1.316811,-1.0199299,-0.79248077,3,1.2547172,2.8344147,-5.9363885,0
1695104279750,3,4.939238,4.0294414,3.7948096,-1.316811,-1.0199299,-0.79248077,3,1.2547172,2.8344147,-5.9363885,0
1695104279751,3,4.381389,4.570531,3.9959226,-1.316811,-1.0199299,-0.79248077,3,1.2547172,2.8344147,-5.9363885,0
1695104279752,3,3.8379054,5.78918,4.086902,-1.316811,-1.0199299,-0.79248077,3,1.2547172,2.8344147,-5.9363885,0
1695104279752,3,2.6192567,7.1634517,5.0302176,-1.316811,-1.0199299,-0.79248077,3,1.2547172,2.8344147,-5.9363885,0
1695104279774,3,2.4013844,7.6494746,4.6016555,-2.15957,0.007182605,-1.079785,3,0.47403142,3.2803464,-3.9193115,0
1695104279774,3,2.5019407,7.9702973,4.0653543,-2.15957,0.007182605,-1.079785,3,0.47403142,3.2803464,-3.9193115,0
1695104279785,3,2.3654714,8.228871,4.211401,-2.7509377,1.3479356,-0.8619126,3,0.17592919,2.7818804,-3.0225613,0
1695104279794,3,2.3104045,8.920795,4.8458643,-2.2577322,1.4820108,-1.532289,3,0.043982297,2.5216517,-2.6755898,0
1695104279801,3,1.8124107,9.287108,5.1140146,-2.0039468,1.5777789,-1.5131354,3,-0.12095132,2.302962,-2.411696,0
1695104279850,3,1.5251064,9.208099,4.9823337,-1.7645266,2.1667526,-0.9720459,3,-0.3042109,2.1551325,-2.2137756,0
1695104279851,3,1.2976574,8.908825,5.0421886,-1.7645266,2.1667526,-0.9720459,3,-0.3042109,2.1551325,-2.2137756,0
1695104279852,3,1.2737153,8.422802,5.473145,-1.7645266,2.1667526,-0.9720459,3,-0.3042109,2.1551325,-2.2137756,0
1695104279852,3,0.9648633,8.034941,6.0022635,-1.7645266,2.1667526,-0.9720459,3,-0.3042109,2.1551325,-2.2137756,0
1695104279852,3,0.557849,7.541735,6.3805475,-1.7645266,2.1667526,-0.9720459,3,-0.3042109,2.1551325,-2.2137756,0
1695104279866,3,0.090979666,7.144298,6.7803793,-1.7621324,1.0462662,-0.30885202,3,-0.73792523,1.4416419,-1.563815,0
1695104279878,3,-0.40940848,6.871359,6.8689647,-1.9728222,0.5315128,0.009576807,3,-0.68783426,1.2767084,-1.3622295,0
1695104279881,3,-0.8379706,6.9886746,6.813898,-2.2361844,0.1436521,0.32321724,3,-0.59742624,1.065349,-1.1203269,0
1695104279892,3,-1.0510546,7.273585,6.8641763,-2.552219,-0.1364695,0.35673606,3,-0.48380527,0.81489426,-0.8136725,0
1695104279901,3,-1.0390835,7.503428,7.1610575,-2.80361,0.0,0.22744916,3,-0.37507126,0.5180137,-0.44226643,0
1695104279950,3,-0.7326257,6.9240313,7.4746976,-2.908955,0.2753332,0.25139117,3,-0.27000242,0.18081611,-0.037873644,0
1695104279951,3,-0.25378537,7.503428,7.0006456,-2.908955,0.2753332,0.25139117,3,-0.27000242,0.18081611,-0.037873644,0
1695104279951,3,0.50038815,8.588001,7.1083846,-2.908955,0.2753332,0.25139117,3,-0.27000242,0.18081611,-0.037873644,0
1695104279952,3,1.2425907,9.572019,6.933608,-2.908955,0.2753332,0.25139117,3,-0.27000242,0.18081611,-0.037873644,0
1695104279950,3,-0.7182605,7.1514807,7.8386164,-2.908955,0.2753332,0.25139117,3,-0.27000242,0.18081611,-0.037873644,0
1695104279964,3,1.7980455,9.801862,6.5481415,-1.352724,1.5921441,0.49320555,3,0.42394048,-1.8826867,2.8050933,0
1695104279973,3,2.2457612,8.980651,6.375759,-0.78050977,2.5713725,0.37349546,3,0.2761111,-2.3774874,3.6138787,0
1695104279982,3,2.7724855,8.161834,6.0118403,-0.50757074,2.825158,0.05746084,3,0.014660766,-2.833193,4.3689084,0
1695104279991,3,3.6774938,7.0820484,5.3127337,-0.44532153,2.0685902,-0.033518825,3,-0.3005457,-3.2559118,5.0604076,0
1695104280002,3,4.1683054,6.528988,4.3837833,-0.4357447,1.3862427,-0.30406362,3,-0.6169739,-3.6236527,5.681047,0
1695104280058,3,4.355053,6.203377,4.1491513,-0.0047884034,0.47405192,-0.92176765,3,-0.8527679,-3.8386772,6.159965,0
1695104280059,3,4.8961425,5.616797,4.295198,-0.0047884034,0.47405192,-0.92176765,3,-0.8527679,-3.8386772,6.159965,0
1695104280059,3,5.6670756,4.924873,4.5034933,-0.0047884034,0.47405192,-0.92176765,3,-0.8527679,-3.8386772,6.159965,0
1695104280059,3,6.2823853,3.7660792,5.1523223,-0.0047884034,0.47405192,-0.92176765,3,-0.8527679,-3.8386772,6.159965,0
1695104280060,3,7.2328835,2.8107927,4.8698063,-0.0047884034,0.47405192,-0.92176765,3,-0.8527679,-3.8386772,6.159965,0
1695104280071,3,7.644686,1.9871874,4.39336,-0.22026655,-1.0247183,-0.39983168,3,-2.252871,-4.759862,7.5869465,0
1695104280077,3,7.869741,1.3335704,4.3119574,0.16759412,-1.3958195,-0.46686932,3,-2.3554964,-4.8099527,7.585725,0
1695104280082,3,7.714118,1.2569559,4.024653,0.04309563,-1.553837,-0.6847417,3,-2.2247713,-4.2601743,7.0115113,0
1695104280092,3,7.4507556,1.0654198,3.6463692,-0.20829555,-1.496376,-0.46447513,3,-2.2247713,-4.2601743,7.0115113,0
1695104280102,3,7.101202,-0.29448682,2.96881,-0.7685388,-0.82121116,-0.4237737,3,-2.179567,-3.9449677,6.5765753,0
1695104280148,3,7.065289,-0.6847417,2.3918076,-1.3096284,-0.38067806,-0.50757074,3,-2.1013765,-3.3597589,5.707925,0
1695104280149,3,7.16824,-1.4820108,1.661576,-1.3096284,-0.38067806,-0.50757074,3,-2.1013765,-3.3597589,5.707925,0
1695104280149,3,7.6255326,-2.5881321,1.1300632,-1.3096284,-0.38067806,-0.50757074,3,-2.1013765,-3.3597589,5.707925,0
1695104280149,3,8.080431,-3.1651347,0.51954174,-1.3096284,-0.38067806,-0.50757074,3,-2.1013765,-3.3597589,5.707925,0
1695104280159,3,8.722076,-3.8426938,0.15083471,-1.6759412,-1.7310078,-1.8387469,3,-1.500285,-2.3860397,3.5601227,0
1695104280163,3,9.301474,-4.735731,-0.24899697,-1.2545617,-1.8315643,-2.1619642,3,-1.2657127,-2.1783454,3.042109,0
1695104280174,3,9.5385,-5.8705826,-0.46447513,-0.61770403,-2.1763294,-2.3104045,3,-1.0103711,-1.9596558,2.6120598,0
1695104280182,3,9.768343,-6.315904,-0.5793968,-0.033518825,-2.7246015,-2.4588451,3,-0.7770206,-1.7153096,2.2834144,0
1695104280192,3,9.720459,-6.634333,-0.5602432,0.21308395,-3.620033,-2.492364,3,-0.55955255,-1.4721853,2.067168,0
1695104280202,3,9.768343,-6.555324,-0.34476504,0.46926352,-3.7924154,-2.3918076,3,-0.3885103,-1.2608259,1.9364429,0
1695104280249,3,9.562442,-6.2871737,-0.2705448,0.4429273,-3.9504328,-2.2529438,3,-0.25778514,-1.0763446,1.8619173,0
1695104280249,3,9.301474,-5.932832,-0.47165772,0.4429273,-3.9504328,-2.2529438,3,-0.25778514,-1.0763446,1.8619173,0
1695104280249,3,9.028535,-5.686229,-0.61770403,0.4429273,-3.9504328,-2.2529438,3,-0.25778514,-1.0763446,1.8619173,0
1695104280250,3,8.762778,-5.631162,-0.78769237,0.4429273,-3.9504328,-2.2529438,3,-0.25778514,-1.0763446,1.8619173,0
1695104280260,3,8.588001,-5.6551046,-0.81642276,-0.076614454,-2.2864625,-1.8962077,3,-0.07696902,-0.29077184,1.4587462,0
1695104280264,3,8.377312,-5.8562174,-0.94570965,-0.2896984,-2.0805612,-2.0159178,3,-0.002443461,-0.04520403,1.1960741,0
1695104280277,3,8.176199,-6.0740895,-1.0749966,-0.4165911,-1.970428,-2.0135236,3,0.08674286,0.1966986,0.86009824,0
1695104280282,3,8.178593,-6.136339,-0.8738836,-0.581791,-2.0638018,-2.1380222,3,0.20525073,0.4166101,0.47158796,0
1695104280293,3,8.39886,-5.877765,-0.35913026,-0.7469909,-2.2050598,-2.2864625,3,0.3371976,0.57543504,0.04520403,0
1695104280302,3,8.623915,-5.482722,0.11252748,-0.7206547,-2.2218192,-2.135628,3,0.43982297,0.6719518,-0.37995818,0
1695104280353,3,8.990228,-5.1571107,0.33039984,-0.48123455,-1.9273324,-1.6328455,3,0.49480084,0.73548174,-0.79534656,0
1695104280354,3,9.009381,-4.984728,0.62249243,-0.48123455,-1.9273324,-1.6328455,3,0.49480084,0.73548174,-0.79534656,0
1695104280354,3,9.088389,-4.7022123,1.0773908,-0.48123455,-1.9273324,-1.6328455,3,0.49480084,0.73548174,-0.79534656,0
1695104280354,3,9.112331,-4.378995,1.2521675,-0.48123455,-1.9273324,-1.6328455,3,0.49480084,0.73548174,-0.79534656,0
1695104280355,3,9.129091,-3.86903,1.4413095,-0.48123455,-1.9273324,-1.6328455,3,0.49480084,0.73548174,-0.79534656,0
1695104280377,3,9.504981,-2.9257145,1.9273324,0.062249243,-0.545878,-0.25617957,3,1.0629056,1.4062119,-3.182608,0
1695104280370,3,9.193734,-3.3686419,1.70946,0.10055647,-0.8643068,-0.34715924,3,0.9419542,1.282817,-2.7867672,0
1695104280385,3,9.605537,-2.5210943,2.0853498,0.06943185,-0.2705448,-0.10055647,3,1.1826351,1.5198327,-3.617544,0
1695104280393,3,9.710882,-2.1739352,2.360683,0.320823,-0.088585466,-0.007182605,3,1.3096951,1.6249015,-4.114788,0
1695104280403,3,9.773131,-1.7310078,2.5210943,0.35194764,-0.059855044,-0.021547815,3,1.4343116,1.7055358,-4.6523495,0
1695104280449,3,9.715671,-1.2976574,2.5258827,0.4141969,0.011971008,0.1412579,3,1.5430456,1.7983873,-5.169142,0
1695104280449,3,9.646238,-0.79487497,2.5833437,0.4141969,0.011971008,0.1412579,3,1.5430456,1.7983873,-5.169142,0
1695104280450,3,9.593566,-0.4213795,2.765303,0.4141969,0.011971008,0.1412579,3,1.5430456,1.7983873,-5.169142,0
1695104280450,3,9.411607,0.15801731,2.837129,0.4141969,0.011971008,0.1412579,3,1.5430456,1.7983873,-5.169142,0
1695104280459,3,9.119514,0.5482722,2.954445,0.22505496,-0.16759412,-0.110133275,3,1.8594738,2.3335052,-6.7573915,0
1695104280463,3,8.429984,0.82360536,3.0597897,0.110133275,-0.24420857,-0.23463176,3,1.8423696,2.4630086,-6.9149947,0
1695104280477,3,7.8625584,1.1611878,2.8419175,-0.08619126,-0.39504328,-0.272939,3,1.754405,2.5900686,-6.976081,0
1695104280483,3,7.563283,1.400608,3.0813377,-0.60812724,-0.80445176,-0.36391866,3,1.6236799,2.7317894,-6.9052205,0
1695104280493,3,6.931214,1.5490485,3.6296098,-0.9959879,-1.0223241,-0.7422025,3,1.4624114,2.8038714,-6.701192,0
1695104280503,3,6.1626754,2.1021092,3.4141316,-0.9792285,-1.532289,-0.7278373,3,1.2742649,2.8612928,-6.4030895,0
1695104280548,3,5.583278,2.6312277,3.809175,-1.3670892,-1.8555063,-0.32321724,3,1.1410962,2.9541442,-6.041457,0
1695104280549,3,5.1235914,3.4955344,3.5194764,-1.3670892,-1.8555063,-0.32321724,3,1.1410962,2.9541442,-6.041457,0
1695104280549,3,4.6902413,4.3646297,3.181894,-1.3670892,-1.8555063,-0.32321724,3,1.1410962,2.9541442,-6.041457,0
1695104280550,3,4.189853,5.533,3.2704794,-1.3670892,-1.8555063,-0.32321724,3,1.1410962,2.9541442,-6.041457,0
1695104280566,3,3.9983168,6.4763155,3.7373488,-2.0159178,-1.0366893,-1.5011644,3,0.61086524,3.182608,-4.411669,0
1695104280567,3,3.7349546,7.4387846,3.9959226,-2.0159178,-1.0366893,-1.5011644,3,0.61086524,3.182608,-4.411669,0
1695104280576,3,3.6655228,8.307879,4.2401314,-1.8722657,0.4285621,-1.2689269,3,0.31764993,2.9846876,-3.6187658,0
1695104280583,3,3.5865142,8.841787,4.355053,-1.7286136,1.1420342,-1.1611878,3,0.15271631,2.8087585,-3.273016,0
1695104280593,3,3.4691982,8.937555,4.5298295,-1.4101849,1.8028339,-1.0534488,3,-0.05375614,2.6743681,-2.9810224,0
1695104280603,3,3.5553896,8.707711,4.5633483,-1.0869676,2.1523874,-1.0773908,3,-0.27366763,2.5766296,-2.7537806,0
1695104280648,3,2.7844565,9.222465,4.6375685,-0.89064306,2.1308396,-1.0151415,3,-0.49602258,2.5228734,-2.579073,0
1695104280667,3,1.6352397,9.030929,4.7907977,-0.46926352,1.8004397,-1.1085154,3,-0.68294734,2.5375342,-2.460565,0
1695104280668,3,0.89064306,8.118738,5.116409,-0.46926352,1.8004397,-1.1085154,3,-0.68294734,2.5375342,-2.460565,0
1695104280668,3,0.51954174,7.335834,5.755661,-0.46926352,1.8004397,-1.1085154,3,-0.68294734,2.5375342,-2.460565,0
1695104280668,3,0.0023942017,7.2711906,6.3925185,-0.46926352,1.8004397,-1.1085154,3,-0.68294734,2.5375342,-2.460565,0
1695104280669,3,-0.29448682,7.0844426,6.564901,-0.46926352,1.8004397,-1.1085154,3,-0.68294734,2.5375342,-2.460565,0
1695104280676,3,-0.8451532,6.9264255,6.6893997,-2.3750482,0.18914193,0.04070143,3,-0.8576548,2.1856759,-2.2162192,0
1695104280683,3,-1.3192052,6.8402343,6.9168487,-2.348712,0.007182605,0.095768064,3,-0.7415904,1.9669861,-2.0134118,0
1695104280694,3,-2.1068976,6.873753,7.275979,-2.6001031,-0.1340753,0.11971009,3,-0.63163465,1.6920967,-1.7531832,0
1695104280704,3,-2.956839,6.588843,7.8529816,-2.7748797,-0.20111294,0.25378537,3,-0.5009095,1.3658947,-1.4196508,0
1695104280751,3,-2.9376855,7.4723034,7.467515,-3.3518825,-0.15083471,0.5530606,3,-0.34330627,0.9639453,-0.9651671,0
1695104280751,3,-1.9967642,7.4603324,7.536947,-3.3518825,-0.15083471,0.5530606,3,-0.34330627,0.9639453,-0.9651671,0
1695104280752,3,-0.5506664,7.311892,7.6614456,-3.3518825,-0.15083471,0.5530606,3,-0.34330627,0.9639453,-0.9651671,0
1695104280750,3,-3.359065,7.015011,8.02297,-3.3518825,-0.15083471,0.5530606,3,-0.34330627,0.9639453,-0.9651671,0
1695104280765,3,0.34955344,10.87207,7.3430166,-2.7940333,0.4429273,0.7374141,3,0.72692966,-1.2950343,1.6798794,0
1695104280776,3,1.376666,10.749966,7.03177,-1.733402,2.2720973,0.7757214,3,0.9896017,-2.235767,3.3719761,0
1695104280765,3,-0.6871359,9.3421755,7.4866686,-2.7940333,0.4429273,0.7374141,3,0.72692966,-1.2950343,1.6798794,0
1695104280784,3,2.0925324,10.172963,6.4643445,-0.9720459,3.7565024,0.7302315,3,0.7611381,-2.9297097,4.3285913,0
1695104280794,3,3.0597897,9.01417,5.556942,-0.2873042,3.620033,0.51235914,3,0.4373795,-3.517362,5.144707,0
1695104280804,3,3.7612908,7.6351094,4.8985367,-0.16759412,3.086126,0.079008654,3,0.013439035,-4.012163,5.842315,0
1695104280849,3,4.0462008,6.43322,4.1635165,0.33039984,2.006341,-0.7326257,3,-0.3567453,-4.312709,6.373768,0
1695104280849,3,4.4077253,5.4420204,3.560178,0.33039984,2.006341,-0.7326257,3,-0.3567453,-4.312709,6.373768,0
1695104280850,3,4.7548847,5.023035,3.6032736,0.33039984,2.006341,-0.7326257,3,-0.3567453,-4.312709,6.373768,0
1695104280850,3,5.9783216,4.1132383,3.5984852,0.33039984,2.006341,-0.7326257,3,-0.3567453,-4.312709,6.373768,0
1695104280858,3,6.9958572,3.3901896,3.9145198,-0.6655881,-0.830788,-2.0901382,3,-1.5076154,-4.736649,7.9351397,0
1695104280864,3,7.381324,3.0119057,4.1922474,-0.076614454,-1.283292,-1.9057846,3,-1.7935003,-4.955339,8.352971,0
1695104280882,3,7.2185183,2.72939,4.110844,0.2896984,-1.4317327,-1.3670892,3,-1.9107865,-5.0335298,8.46537,0
1695104280885,3,7.1730285,1.472434,3.9576154,0.045489833,-1.1300632,-0.82121116,3,-2.172237,-4.8356094,8.174599,0
1695104280894,3,7.089231,0.9792285,3.4979286,-0.6799533,-0.6751649,-0.59136784,3,-2.2724187,-4.607146,7.825184,0
1695104280905,3,6.801927,0.770933,2.966416,-1.2330139,-1.091756,-0.38307226,3,-2.334727,-4.287052,7.3377132,0
1695104280978,3,6.7492547,0.10295067,2.2170308,-1.6472107,-0.89543146,-0.5315128,3,-2.3848178,-3.9425242,6.787935,0
1695104280979,3,7.129933,-0.89782566,1.460463,-1.6472107,-0.89543146,-0.5315128,3,-2.3848178,-3.9425242,6.787935,0
1695104280979,3,7.3765354,-2.123657,0.5770026,-1.6472107,-0.89543146,-0.5315128,3,-2.3848178,-3.9425242,6.787935,0
1695104280979,3,7.759608,-3.040636,0.12928689,-1.6472107,-0.89543146,-0.5315128,3,-2.3848178,-3.9425242,6.787935,0
1695104280980,3,7.9367785,-3.8786068,-0.4141969,-1.6472107,-0.89543146,-0.5315128,3,-2.3848178,-3.9425242,6.787935,0
1695104280980,3,8.133103,-4.405331,-0.7517793,-1.6472107,-0.89543146,-0.5315128,3,-2.3848178,-3.9425242,6.787935,0
1695104280980,3,8.485051,-5.403713,-1.2545617,-1.6472107,-0.89543146,-0.5315128,3,-2.3848178,-3.9425242,6.787935,0
1695104281000,3,9.284714,-7.6853876,-2.243367,-0.80445176,-2.6527755,-2.743755,3,-1.0115929,-1.6762142,2.6169467,0
1695104281005,3,9.662998,-8.7053175,-2.777274,-0.4309563,-3.371036,-2.942474,3,-0.74281216,-1.2999213,2.1319196,0
1695104280992,3,8.789114,-6.459556,-1.7022774,-1.2138603,-2.0278888,-2.5019407,3,-1.2889256,-2.0341814,3.1312952,0
1695104281051,3,9.842564,-9.287108,-2.8491,0.11971009,-4.3718123,-3.3159695,3,-0.4728097,-0.91507614,1.690875,0
1695104281051,3,9.763555,-9.279925,-2.6767175,0.11971009,-4.3718123,-3.3159695,3,-0.4728097,-0.91507614,1.690875,0
1695104281052,3,9.363723,-8.686164,-2.1619642,0.11971009,-4.3718123,-3.3159695,3,-0.4728097,-0.91507614,1.690875,0
1695104281063,3,7.9152308,-6.9024835,-1.3383588,0.39504328,-4.7979803,-2.9113493,3,0.4373795,0.2883284,0.5656612,0
1695104281070,3,7.405266,-5.9687448,-0.9672575,-0.24899697,-3.9863458,-2.4277205,3,0.59620446,0.49480084,0.36651915,0
1695104281052,3,8.683769,-7.9487495,-1.6663644,0.11971009,-4.3718123,-3.3159695,3,-0.4728097,-0.91507614,1.690875,0
1695104281076,3,7.2544312,-5.2624555,-0.7422025,-0.9959879,-2.896984,-2.1404164,3,0.6914995,0.643852,0.15515977,0
1695104281085,3,7.2592196,-5.0062757,-0.48841715,-1.484405,-1.9321208,-1.8435353,3,0.71837753,0.7281514,-0.08552113,0
1695104281096,3,7.4483614,-4.9895163,-0.37110126,-1.6256629,-1.2186487,-1.6950948,3,0.6927212,0.7623598,-0.35796702,0
1695104281107,3,8.030152,-4.9799395,-0.35434186,-1.6160861,-0.9816227,-1.5514427,3,0.625526,0.7733554,-0.6414085,0
1695104281158,3,8.595184,-4.8267107,-0.12928689,0.6919243,-0.61052144,-0.12449849,3,0.59864795,1.2082914,-2.719572,0
1695104281158,3,9.093178,-4.757279,0.24181437,0.6919243,-0.61052144,-0.12449849,3,0.59864795,1.2082914,-2.719572,0
1695104281159,3,9.457097,-4.486734,0.78529817,0.6919243,-0.61052144,-0.12449849,3,0.59864795,1.2082914,-2.719572,0
1695104281159,3,9.703699,-4.201824,1.2952632,0.6919243,-0.61052144,-0.12449849,3,0.59864795,1.2082914,-2.719572,0
1695104281159,3,9.895236,-3.9336734,1.6041151,0.6919243,-0.61052144,-0.12449849,3,0.59864795,1.2082914,-2.719572,0
1695104281168,3,10.014946,-3.6607344,1.7118542,0.6919243,-0.61052144,-0.12449849,3,0.59864795,1.2082914,-2.719572,0
1695104281181,3,10.029311,-3.095703,1.697489,0.8283938,-0.51475334,0.107739076,3,0.6035349,1.3573426,-3.1215215,0
1695104281185,3,10.031705,-2.6767175,1.6687586,0.8882488,-0.45250413,0.12210429,3,0.65240407,1.5442673,-3.5747833,0
1695104281196,3,10.103531,-2.2457612,1.6256629,0.8355764,-0.1436521,-0.0023942017,3,0.7648033,1.7629571,-4.0866885,0
1695104281206,3,10.196905,-1.9177556,1.7477672,0.7661445,-0.059855044,-0.17956513,3,0.9224065,1.990199,-4.6621237,0
1695104281250,3,10.206482,-1.5155296,1.9177556,0.78290397,0.05267244,-0.35913026,3,1.0604621,2.1930063,-5.2607713,0
1695104281250,3,10.3453455,-0.9935937,2.0015526,0.78290397,0.05267244,-0.35913026,3,1.0604621,2.1930063,-5.2607713,0
1695104281250,3,10.419566,-0.7445967,2.1811178,0.78290397,0.05267244,-0.35913026,3,1.0604621,2.1930063,-5.2607713,0
1695104281251,3,10.311827,-0.6775591,2.4516625,0.78290397,0.05267244,-0.35913026,3,1.0604621,2.1930063,-5.2607713,0
1695104281259,3,9.991004,-0.6607997,2.6240451,1.0295067,-0.48841715,-0.62967503,3,1.505172,2.9321532,-7.574729,0
1695104281265,3,9.306262,-0.48841715,2.908955,1.0031705,-1.0845734,-0.59615624,3,1.577254,3.1154127,-8.002335,0
1695104281277,3,8.200141,-0.35913026,3.1962593,0.82360536,-1.7788919,-0.6655881,3,1.6297885,3.3389895,-8.285776,0
1695104281286,3,7.338228,-0.04309563,3.265691,0.35194764,-2.348712,-0.62249243,3,1.6175711,3.5833356,-8.371297,0
1695104281296,3,6.3949127,0.272939,3.0238767,-0.46447513,-2.9640217,-0.5770026,3,1.563815,3.7458258,-8.205142,0
1695104281306,3,5.185841,1.0773908,2.27928,-0.92655605,-3.4332852,-0.7685388,3,1.5308284,3.8875463,-7.87894,0
1695104281358,3,4.1659107,1.9800048,2.267309,-3.0334535,-0.6368576,-2.0853498,3,0.49235737,4.076915,-4.791627,0
1695104281359,3,3.1914709,3.0262709,2.7988217,-3.0334535,-0.6368576,-2.0853498,3,0.49235737,4.076915,-4.791627,0
1695104281359,3,2.6264393,4.3406878,2.9640217,-3.0334535,-0.6368576,-2.0853498,3,0.49235737,4.076915,-4.791627,0
1695104281360,3,1.9273324,5.9902925,3.1651347,-3.0334535,-0.6368576,-2.0853498,3,0.49235737,4.076915,-4.791627,0
1695104281360,3,1.6448165,7.3525934,3.4979286,-3.0334535,-0.6368576,-2.0853498,3,0.49235737,4.076915,-4.791627,0
1695104281373,3,1.532289,8.219295,3.5625722,-3.0334535,-0.6368576,-2.0853498,3,0.49235737,4.076915,-4.791627,0
1695104281379,3,1.3192052,8.947132,3.809175,-2.7844565,0.45729253,-1.8818425,3,0.2443461,3.8692205,-4.1783185,0
1695104281386,3,0.85473,9.837775,3.9983168,-2.2816741,1.0773908,-1.9656396,3,0.04642576,3.685961,-3.6346483,0
1695104281396,3,0.30166942,10.589554,4.3263226,-2.030283,1.6591818,-1.8267759,3,-0.16249016,3.5772269,-3.200934,0
1695104281406,3,-0.44532153,11.391612,5.046977,-1.9201498,2.4133554,-1.769315,3,-0.37873647,3.500258,-2.8674014,0
1695104281451,3,-0.9504981,11.317391,5.4563856,-2.5953147,2.4277205,0.21068975,3,-1.346347,2.3017402,-2.080607,0
1695104281452,3,-1.4460979,10.94629,6.0262055,-2.5953147,2.4277205,0.21068975,3,-1.346347,2.3017402,-2.080607,0
1695104281452,3,-1.8100165,9.911995,6.495469,-2.5953147,2.4277205,0.21068975,3,-1.346347,2.3017402,-2.080607,0
1695104281452,3,-1.8579005,9.246407,6.7013707,-2.5953147,2.4277205,0.21068975,3,-1.346347,2.3017402,-2.080607,0
1695104281461,3,-2.1906946,8.303091,6.8665705,-2.5953147,2.4277205,0.21068975,3,-1.346347,2.3017402,-2.080607,0
1695104281466,3,-2.719813,7.5321584,6.95755,-2.3008277,1.8243817,0.31124622,3,-1.3768903,1.9498819,-1.7641789,0
1695104281478,3,-3.3399115,6.6654577,7.386112,-2.3319526,0.9600749,0.37110126,3,-1.3219124,1.6163495,-1.3988814,0
1695104281486,3,-4.0940847,5.861006,7.5824366,-2.6048915,0.2777274,0.36152446,3,-1.210735,1.2534955,-1.0128145,0
1695104281497,3,-4.5537715,5.2504845,7.81228,-3.016694,-0.49559975,0.6991069,3,-0.9957104,0.8381071,-0.6414085,0
1695104281507,3,-4.3957543,5.451597,7.860164,-3.6008794,-1.2066777,0.80684596,3,-0.68294734,0.39095375,-0.27366763,0
1695104281547,3,-4.0462008,5.8083334,7.606379,-3.9671922,-1.7549498,0.9792285,3,-0.33108896,-0.07696902,0.10873401,0
1695104281548,3,-3.265691,6.3661823,7.489063,-3.9671922,-1.7549498,0.9792285,3,-0.33108896,-0.07696902,0.10873401,0
1695104281548,3,-2.1308396,6.8761473,7.45315,-3.9671922,-1.7549498,0.9792285,3,-0.33108896,-0.07696902,0.10873401,0
1695104281548,3,-1.3479356,7.6351094,7.603985,-3.9671922,-1.7549498,0.9792285,3,-0.33108896,-0.07696902,0.10873401,0
1695104281558,3,-0.78290397,8.248025,6.9407907,-1.6448165,-0.08619126,0.5674258,3,0.8588765,-1.6249015,1.9401081,0
1695104281567,3,-0.20590134,9.064447,6.5601125,-1.0534488,0.62249243,0.7589619,3,1.0189233,-1.8961257,2.5265386,0
1695104281578,3,0.38067806,9.141062,6.241684,-0.6823475,1.1779473,0.14844051,3,1.0726794,-2.2003367,3.0921998,0
1695104281588,3,1.5298948,8.437167,5.695806,-0.36631286,1.9321208,-0.1604115,3,0.7684685,-2.9443705,4.019493,0
1695104281598,3,0.6991069,7.393295,5.2026005,-0.11252748,1.946486,-0.39743748,3,0.7684685,-2.9443705,4.019493,0
1695104281607,3,-1.0103531,7.249643,4.0557775,0.48602295,1.2162545,-0.8499416,3,0.68661255,-3.1300735,4.183205,0
1695104281648,3,-1.5394717,6.7013707,3.9983168,-0.6895301,0.16519992,-1.271321,3,0.6988298,-3.0262265,4.1966443,0
1695104281649,3,5.070919,7.261614,4.1491513,-0.6895301,0.16519992,-1.271321,3,0.6988298,-3.0262265,4.1966443,0
1695104281649,3,6.897695,7.6710224,3.7493198,-0.6895301,0.16519992,-1.271321,3,0.6988298,-3.0262265,4.1966443,0
1695104281649,3,6.9886746,7.1754227,3.9217024,-0.6895301,0.16519992,-1.271321,3,0.6988298,-3.0262265,4.1966443,0
1695104281659,3,7.038953,5.2720323,4.5178585,3.7205894,0.61052144,-2.2625206,3,-0.6914995,-4.030489,6.051231,0
1695104281669,3,7.16824,4.5058875,4.6232033,3.1483753,0.32321724,-1.9440918,3,-1.3414601,-3.9009855,6.4446282,0
1695104281679,3,7.3071036,4.0940847,4.4795513,2.6479871,-1.3383588,-1.2378023,3,-1.568702,-3.898542,6.5668015,0
1695104281687,3,7.204153,3.1747115,4.098873,2.0973208,-1.6998832,-1.0199299,3,-1.7201965,-3.8069122,6.549697,0
1695104281697,3,7.2209125,2.633622,3.8881836,1.6950948,-1.7286136,-1.0606314,3,-1.7605137,-3.6664133,6.442185,0
1695104281753,3,7.2448545,2.2816741,3.3423057,0.91458505,-2.0757728,-1.2856863,3,-1.7421877,-3.50881,6.3444467,0
1695104281753,3,7.4962454,1.8100165,2.9041667,0.91458505,-2.0757728,-1.2856863,3,-1.7421877,-3.50881,6.3444467,0
1695104281753,3,7.4986396,1.4317327,2.9783869,0.91458505,-2.0757728,-1.2856863,3,-1.7421877,-3.50881,6.3444467,0
1695104281754,3,7.615956,1.1755531,2.956839,0.91458505,-2.0757728,-1.2856863,3,-1.7421877,-3.50881,6.3444467,0
1695104281754,3,7.587225,0.830788,2.7269957,0.91458505,-2.0757728,-1.2856863,3,-1.7421877,-3.50881,6.3444467,0
1695104281774,3,7.869741,0.021547815,2.4253263,-0.7038953,-1.4053963,-1.5394717,3,-1.7250835,-2.8050933,5.3597317,0
1695104281775,3,8.037335,-0.7469909,2.1068976,-0.7038953,-1.4053963,-1.5394717,3,-1.7250835,-2.8050933,5.3597317,0
1695104281780,3,8.317456,-1.4341269,2.066196,-0.92176765,-1.4676456,-1.6448165,3,-1.5234979,-2.453235,4.7977357,0
1695104281790,3,8.446744,-1.934515,1.9776106,-0.92176765,-1.721431,-1.7501614,3,-1.4062119,-2.2626448,4.4984117,0
1695104281798,3,8.760384,-2.4349031,1.958457,-0.7685388,-1.9177556,-1.5801731,3,-1.269378,-2.1294763,4.2320743,0
1695104281853,3,8.956709,-2.5905263,1.757344,-0.7374141,-1.9129672,-1.4437037,3,-1.1496484,-2.0073032,3.9730675,0
1695104281854,3,9.181764,-2.918532,1.5921441,-0.7374141,-1.9129672,-1.4437037,3,-1.1496484,-2.0073032,3.9730675,0
1695104281855,3,9.416395,-3.41892,1.1851299,-0.7374141,-1.9129672,-1.4437037,3,-1.1496484,-2.0073032,3.9730675,0
1695104281856,3,9.902418,-4.465186,0.5434838,-0.7374141,-1.9129672,-1.4437037,3,-1.1496484,-2.0073032,3.9730675,0
1695104281865,3,10.151415,-4.733337,-0.047884032,0.3854665,-2.1811178,-1.6112977,3,-0.7012733,-0.95905846,2.7232373,0
1695104281855,3,9.665392,-4.060566,0.93373865,-0.7374141,-1.9129672,-1.4437037,3,-1.1496484,-2.0073032,3.9730675,0
1695104281869,3,10.232818,-5.0517654,-0.61770403,0.6536171,-2.2864625,-1.8722657,3,-0.5839872,-0.6597345,2.3762658,0
1695104281879,3,10.120291,-5.542577,-0.62728083,0.94331545,-2.2864625,-2.3582888,3,-0.44715336,-0.35918877,1.9657644,0
1695104281888,3,9.859323,-5.911284,-0.4429273,1.0702082,-2.3750482,-2.8538885,3,-0.32253686,-0.09407325,1.5222762,0
1695104281898,3,9.291897,-6.217742,-0.19632454,1.0031705,-2.6767175,-2.815581,3,-0.21013765,0.13316862,1.0519099,0
1695104281952,3,8.659827,-6.1938,-0.04309563,0.79008657,-2.885013,-2.6120741,3,-0.12095132,0.33841935,0.59742624,0
1695104281952,3,7.9822683,-6.136339,0.25617957,0.79008657,-2.885013,-2.6120741,3,-0.12095132,0.33841935,0.59742624,0
1695104281953,3,7.5824366,-6.1100025,0.8283938,0.79008657,-2.885013,-2.6120741,3,-0.12095132,0.33841935,0.59742624,0
1695104281953,3,7.477092,-5.8562174,0.92176765,0.79008657,-2.885013,-2.6120741,3,-0.12095132,0.33841935,0.59742624,0
1695104281953,3,7.381324,-5.595249,0.93373865,0.79008657,-2.885013,-2.6120741,3,-0.12095132,0.33841935,0.59742624,0
1695104281962,3,7.5465236,-6.129156,0.9648633,-1.5059528,-2.6791117,-1.3838485,3,0.36285394,0.9615019,-1.3927728,0
1695104281968,3,8.944737,-5.48751,1.0702082,-1.6112977,-2.5234885,-1.4700398,3,0.41050145,1.0140363,-1.7922786,0
1695104281979,3,10.141838,-3.8259344,1.9536686,-1.4556746,-3.1148565,-1.4796166,3,0.46792278,1.0983357,-2.180789,0
1695104281988,3,10.939108,-2.6767175,2.3894134,-0.074220255,-2.5785553,-1.4317327,3,0.6731735,1.1191051,-2.8441887,0
1695104281998,3,11.281479,-3.086126,2.7389667,1.0941502,-1.0654198,-0.62009823,3,0.9236283,1.210735,-3.649309,0
1695104282056,3,10.134656,-3.5051112,2.2385786,1.8435353,-0.19632454,-0.29448682,3,1.1447614,1.4819591,-4.420221,0
1695104282057,3,9.409213,-2.753332,1.8914193,1.8435353,-0.19632454,-0.29448682,3,1.1447614,1.4819591,-4.420221,0
1695104282057,3,9.382876,-1.7070658,1.8579005,1.8435353,-0.19632454,-0.29448682,3,1.1447614,1.4819591,-4.420221,0
1695104282058,3,9.332599,-0.49081135,1.8962077,1.8435353,-0.19632454,-0.29448682,3,1.1447614,1.4819591,-4.420221,0
1695104282058,3,9.196129,-0.021547815,3.0789435,1.8435353,-0.19632454,-0.29448682,3,1.1447614,1.4819591,-4.420221,0
1695104282059,3,8.896853,0.34715924,2.8395233,1.8435353,-0.19632454,-0.29448682,3,1.1447614,1.4819591,-4.420221,0
1695104282070,3,8.12592,0.45250413,3.1052797,0.17238252,-0.81163436,-0.6727707,3,2.3774874,3.072652,-8.228354,0
1695104282080,3,7.5082164,0.46926352,3.6655228,0.05746084,-1.1899183,-1.1133038,3,2.2650883,3.2950072,-8.360302,0
1695104282088,3,6.897695,0.58897364,3.9504328,-0.45968673,-1.8219875,-1.0414777,3,2.122146,3.5271358,-8.260119,0
1695104282099,3,6.2129536,1.0702082,3.4620156,-0.7422025,-2.5498247,-0.6799533,3,1.9938642,3.7421606,-7.986452,0
1695104282154,3,5.2409077,1.6998832,2.813187,-0.89064306,-3.2273839,-0.61770403,3,1.9327776,3.943746,-7.600385,0
1695104282154,3,4.027047,2.7102363,2.3678656,-0.89064306,-3.2273839,-0.61770403,3,1.9327776,3.943746,-7.600385,0
1695104282155,3,2.9616275,4.2880154,2.2864625,-0.89064306,-3.2273839,-0.61770403,3,1.9327776,3.943746,-7.600385,0
1695104282155,3,0.33518824,9.562442,4.072537,-0.89064306,-3.2273839,-0.61770403,3,1.9327776,3.943746,-7.600385,0
1695104282155,3,1.3575124,7.4148426,3.095703,-0.89064306,-3.2273839,-0.61770403,3,1.9327776,3.943746,-7.600385,0
1695104282164,3,0.91697925,10.240001,4.0892963,-3.608062,0.91697925,-2.3104045,3,0.5729916,3.9022071,-4.7659707,0
1695104282168,3,1.2210429,10.623073,4.402937,-4.0318356,2.7509377,-1.4628572,3,0.1685988,3.2534683,-3.9339721,0
1695104282180,3,1.472434,11.130644,4.501099,-2.8993783,3.2010477,-1.5658079,3,-0.13927728,2.6658158,-3.1532865,0
1695104282189,3,1.5011644,11.801021,4.9799395,-2.1308396,3.4356794,-1.3575124,3,-0.37140608,2.3237314,-2.5143213,0
1695104282199,3,1.2976574,11.779472,5.3725886,-1.496376,3.8498764,-1.352724,3,-0.59864795,2.085494,-1.990199,0
1695104282247,3,1.127669,11.286267,5.877765,-1.1133038,4.4675803,-0.9768343,3,-0.83199847,1.9120082,-1.5552629,0
1695104282247,3,0.91458505,10.443508,6.38773,-1.1133038,4.4675803,-0.9768343,3,-0.83199847,1.9120082,-1.5552629,0
1695104282249,3,0.5602432,8.817844,6.777985,-1.1133038,4.4675803,-0.9768343,3,-0.83199847,1.9120082,-1.5552629,0
1695104282249,3,0.050278235,7.0245876,7.252037,-1.1133038,4.4675803,-0.9768343,3,-0.83199847,1.9120082,-1.5552629,0
1695104282249,3,-0.6847417,5.439626,7.465121,-1.1133038,4.4675803,-0.9768343,3,-0.83199847,1.9120082,-1.5552629,0
1695104282270,3,-1.7118542,4.5298295,6.933608,-2.1308396,-1.6687586,0.8714894,3,-0.816116,0.8918633,-0.8258898,0
1695104282263,3,-1.3120226,4.4795513,7.3190746,-1.5466543,-0.14844051,0.7637503,3,-1.0861185,1.0665708,-0.93951076,0
1695104282280,3,-1.6328455,5.650316,6.730101,-2.621651,-2.5713725,0.6344634,3,-0.48991394,0.66339964,-0.61819565,0
1695104282289,3,-1.0366893,6.6079965,6.801927,-2.9041667,-2.4756045,0.18195933,3,-0.18692477,0.36041048,-0.34330627,0
1695104282299,3,-0.58418524,6.7348895,6.682217,-2.7365725,-1.328782,-0.062249243,3,0.062308256,0.019547688,-0.08674286,0
1695104282350,3,-0.4213795,6.7731967,6.7947445,-2.0853498,-0.36152446,-0.009576807,3,0.27488935,-0.28588495,0.1160644,0
1695104282350,3,-0.47644615,6.9048777,6.5601125,-2.0853498,-0.36152446,-0.009576807,3,0.27488935,-0.28588495,0.1160644,0
1695104282351,3,-0.5650316,7.309498,6.256049,-2.0853498,-0.36152446,-0.009576807,3,0.27488935,-0.28588495,0.1160644,0
1695104282351,3,1.9728222,8.291121,5.997475,-2.0853498,-0.36152446,-0.009576807,3,0.27488935,-0.28588495,0.1160644,0
1695104282351,3,3.1124623,8.346188,5.9998693,-2.0853498,-0.36152446,-0.009576807,3,0.27488935,-0.28588495,0.1160644,0
1695104282361,3,2.96881,8.540117,6.045359,0.7565677,1.1683705,-0.62728083,3,0.829555,-1.4343116,1.536937,0
1695104282369,3,2.870648,9.337387,6.019023,1.8004397,1.1587936,-0.5363012,3,0.86376345,-1.6053538,2.0769417,0
1695104282381,3,3.2082303,9.44752,5.839458,1.5107412,1.3144168,-0.4189853,3,0.84421575,-1.7690657,2.7818804,0
1695104282390,3,3.347094,9.339781,5.74369,1.1731589,2.0757728,-0.34237084,3,0.43249258,-2.5167649,4.3627996,0
1695104282401,3,3.5984852,8.868123,5.41329,1.2258313,2.1691468,-0.4213795,3,0.43249258,-2.5167649,4.3627996,0
1695104282446,3,4.0653543,8.039729,5.1355624,0.8738836,2.1260512,-0.4141969,3,0.073303826,-2.765998,5.0261993,0
1695104282447,3,4.5034933,7.4244194,5.106832,0.8738836,2.1260512,-0.4141969,3,0.073303826,-2.765998,5.0261993,0
1695104282447,3,4.7860093,6.603208,5.0038815,0.8738836,2.1260512,-0.4141969,3,0.073303826,-2.765998,5.0261993,0
1695104282447,3,4.699818,6.4619503,5.0302176,0.8738836,2.1260512,-0.4141969,3,0.073303826,-2.765998,5.0261993,0
1695104282459,3,4.7548847,5.746084,5.0613422,0.3184288,0.07182605,-0.78290397,3,-1.3524556,-3.345098,6.57291,0
1695104282460,3,5.925649,3.9552212,3.763685,0.3184288,0.07182605,-0.78290397,3,-1.3524556,-3.345098,6.57291,0
1695104282470,3,6.4188547,3.157952,3.3063924,-0.79966336,-0.07182605,-0.5386954,3,-2.058616,-3.477045,6.536258,0
1695104282481,3,6.897695,2.918532,2.9999347,-0.1316811,-1.4413095,-1.7357962,3,-2.0793853,-3.273016,6.2625904,0
1695104282490,3,7.0581064,2.5570073,2.8179753,-0.12928689,-1.7549498,-2.0853498,3,-2.0732768,-3.018896,5.8850756,0
1695104282500,3,7.465121,1.9632454,2.5115175,-0.10534488,-1.4748282,-2.267309,3,-2.048842,-2.733011,5.4195967,0
1695104282510,3,7.7787614,1.4317327,2.5570073,-0.38307226,-1.2497733,-2.303222,3,-2.0195205,-2.388483,4.92113,0
1695104282520,3,8.176199,0.62728083,2.408567,-0.2753332,-1.3790601,-2.4875755,3,-1.9743165,-2.0341814,4.387234,0
1695104282563,3,8.954314,-2.0757728,2.6647465,-0.23223756,-1.42455,-2.3175871,3,-1.9083431,-1.6554449,3.789808,0
1695104282564,3,9.299079,-3.7924154,3.1531637,-0.23223756,-1.42455,-2.3175871,3,-1.9083431,-1.6554449,3.789808,0
1695104282564,3,9.68694,-4.8027687,2.8634653,-0.23223756,-1.42455,-2.3175871,3,-1.9083431,-1.6554449,3.789808,0
1695104282576,3,9.9550905,-4.5202527,2.231396,0.7182605,-5.1810527,-1.3814543,3,-0.75991637,-0.31642818,0.8038987,0
1695104282582,3,10.244789,-3.8283286,1.6519991,1.0606314,-6.0046577,-1.6376339,3,-0.3494149,-0.07452556,0.15760323,0
1695104282563,3,8.599973,-0.5243302,2.3439236,-0.23223756,-1.42455,-2.3175871,3,-1.9083431,-1.6554449,3.789808,0
1695104282590,3,10.7356,-3.1771057,1.5442601,1.30484,-5.616797,-2.2505496,3,0.04153884,0.21991149,-0.38728857,0
1695104282600,3,11.046846,-2.6767175,1.7764976,1.5897499,-4.8961425,-2.8275523,3,0.36041048,0.55955255,-0.7965683,0
1695104282610,3,11.075577,-2.1404164,1.970428,2.0925324,-4.2760444,-2.9520507,3,0.56199604,0.9285152,-1.0580186,0
1695104282624,3,10.905589,-1.520318,2.1643584,2.4229321,-3.821146,-2.741361,3,0.67073005,1.2852604,-1.205848,0
1695104282662,3,10.311827,-1.2425907,2.2290018,2.4851813,-3.359065,-2.5953147,3,0.7147123,1.6236799,-1.282817,0
1695104282663,3,9.557653,-1.0749966,2.4396915,2.4851813,-3.359065,-2.5953147,3,0.7147123,1.6236799,-1.282817,0
1695104282663,3,8.336611,-1.1109096,3.095703,2.4851813,-3.359065,-2.5953147,3,0.7147123,1.6236799,-1.282817,0
1695104282664,3,5.9519854,-2.255338,4.0198646,2.4851813,-3.359065,-2.5953147,3,0.7147123,1.6236799,-1.282817,0
1695104282676,3,4.3718123,-2.6360161,3.787627,0.05746084,-2.7269957,-1.9009962,3,0.8881981,2.6939158,-1.6212363,0
1695104282685,3,6.265626,2.4971523,5.753267,-2.2218192,-3.9695864,-1.1133038,3,1.2021828,2.624277,-1.6102408,0
1695104282690,3,7.1826053,4.5441947,6.019023,-3.6415808,-4.501099,-1.541866,3,1.4758505,2.0744984,-1.3939945,0
1695104282701,3,7.1395097,5.3582234,5.590461,-1.5753847,0.4429273,0.23942018,3,1.128879,1.287704,-0.8197812,0
1695104282710,3,7.4363904,4.951209,5.4420204,-0.49799395,2.27928,0.36391866,3,0.675617,1.1899655,-0.42149702,0
1695104282721,3,6.9240313,4.6399627,5.791574,-0.45729253,2.980781,-0.12689269,3,0.2932153,1.0812315,-0.0036651916,0
1695104282763,3,7.302315,3.5913026,6.5337763,-0.08140286,2.5019407,-0.34955344,3,0.012217305,0.90041536,0.40317106,0
1695104282764,3,9.583989,2.1619642,8.307879,-0.08140286,2.5019407,-0.34955344,3,0.012217305,0.90041536,0.40317106,0
1695104282764,3,8.774749,4.2425256,8.686164,-0.08140286,2.5019407,-0.34955344,3,0.012217305,0.90041536,0.40317106,0
1695104282764,3,8.267179,2.504335,6.921637,-0.08140286,2.5019407,-0.34955344,3,0.012217305,0.90041536,0.40317106,0
1695104282784,3,7.405266,1.4628572,6.253655,1.3479356,1.9800048,2.7006595,3,-0.54611355,0.52534413,0.6389651,0
1695104282785,3,6.933608,0.80205756,5.5258174,1.3479356,1.9800048,2.7006595,3,-0.54611355,0.52534413,0.6389651,0
1695104282794,3,6.6989765,0.62728083,5.4659624,-0.011971008,-0.63206923,0.19632454,3,-0.43004912,0.6426302,0.22968534,0
1695104282801,3,6.6391215,0.38307226,5.710171,-0.45968673,-1.2425907,-0.5770026,3,-0.37140608,0.5900958,0.09773844,0
1695104282811,3,6.5744777,0.1412579,5.7963624,-0.6607997,-1.3694834,-0.6919243,3,-0.28344148,0.45937067,-0.004886922,0
1695104282821,3,6.7253127,0.1412579,5.8586116,-0.7062895,-1.5825673,-0.47405192,3,-0.16982053,0.2919936,-0.10140363,0
1695104282864,3,7.1059904,0.1436521,5.825093,-0.7541735,-1.7956513,-0.4189853,3,-0.061086524,0.112399206,-0.15149458,0
1695104282864,3,7.606379,0.35194764,5.9926867,-0.7541735,-1.7956513,-0.4189853,3,-0.061086524,0.112399206,-0.15149458,0
1695104282865,3,7.73806,0.6799533,5.9041014,-0.7541735,-1.7956513,-0.4189853,3,-0.061086524,0.112399206,-0.15149458,0
1695104282865,3,7.723695,1.0271125,5.865794,-0.7541735,-1.7956513,-0.4189853,3,-0.061086524,0.112399206,-0.15149458,0
1695104282873,3,7.61835,1.0366893,5.865794,0.39025488,-1.1947067,-0.30885202,3,0.06352998,-0.54733527,0.16371189,0
1695104282883,3,7.704541,1.1827357,5.719748,0.18914193,-0.7661445,-0.2705448,3,0.057421334,-0.6658431,0.24678956,0
1695104282891,3,7.7069354,1.4030021,5.638345,0.18914193,-0.7661445,-0.2705448,3,0.04642576,-0.75625116,0.2968805,0
1695104282902,3,7.6853876,1.388637,5.4803276,0.22744916,-0.5770026,-0.37110126,3,0.030543262,-0.8136725,0.31520647,0
1695104282911,3,7.785944,1.4796166,5.2983685,0.16280572,-0.30645782,-0.38307226,3,0.009773844,-0.8368854,0.30543262,0
1695104282921,3,7.8984714,1.352724,5.0421886,0.093373865,-0.2777274,-0.49081135,3,-0.021991149,-0.8405506,0.28099802,0
1695104282964,3,7.989451,1.1827357,4.876989,0.12928689,-0.1436521,-0.60333884,3,-0.058643065,-0.8246681,0.23823744,0
1695104282964,3,8.159439,0.79248077,4.72376,0.12928689,-0.1436521,-0.60333884,3,-0.058643065,-0.8246681,0.23823744,0
1695104282965,3,8.276755,0.60333884,4.6112323,0.12928689,-0.1436521,-0.60333884,3,-0.058643065,-0.8246681,0.23823744,0
1695104282965,3,8.446744,0.39983168,4.381389,0.12928689,-0.1436521,-0.60333884,3,-0.058643065,-0.8246681,0.23823744,0
1695104282977,3,8.48984,0.37349546,4.3023806,0.40940848,-0.89303726,-1.0414777,3,-0.080634214,-0.5656612,-0.018325957,0
1695104282985,3,8.602366,0.50278234,4.3742065,0.533907,-1.0749966,-1.2162545,3,-0.06719518,-0.47647488,-0.04642576,0
1695104282993,3,8.698134,0.7038953,4.4939165,0.5363012,-1.079785,-1.2425907,3,-0.04520403,-0.39584067,-0.05497787,0
1695104283002,3,8.602366,0.8451532,4.534618,0.61291564,-0.93134445,-1.1228806,3,-0.013439035,-0.32498032,-0.057421334,0
1695104283011,3,8.453926,0.9648633,4.630386,0.6727707,-0.7110779,-0.9528923,3,0.014660766,-0.25045475,-0.06963864,0
1695104283023,3,8.24563,1.0342951,4.6902413,0.545878,-0.5506664,-0.8738836,3,0.032986723,-0.16737708,-0.08552113,0
1695104283069,3,8.080431,1.1540052,4.72376,0.36870706,-0.4141969,-0.7374141,3,0.04886922,-0.08307768,-0.09407325,0
1695104283069,3,8.020576,1.2904748,4.6806645,0.36870706,-0.4141969,-0.7374141,3,0.04886922,-0.08307768,-0.09407325,0
1695104283070,3,7.9750857,1.340753,4.6926355,0.36870706,-0.4141969,-0.7374141,3,0.04886922,-0.08307768,-0.09407325,0
1695104283070,3,8.101978,1.3000516,4.6495395,0.36870706,-0.4141969,-0.7374141,3,0.04886922,-0.08307768,-0.09407325,0
1695104283073,3,8.147469,1.2018893,4.747702,-0.39025488,0.2705448,-0.30166942,3,0.004886922,0.10629055,-0.040317107,0
1695104283088,3,8.252813,1.0965444,4.7429137,-0.2705448,0.22744916,-0.33039984,3,-0.008552114,0.12705997,-0.037873644,0
1695104283095,3,8.322245,0.94331545,4.8123455,-0.22984336,0.12210429,-0.22505496,3,-0.019547688,0.14172074,-0.043982297,0
1695104283102,3,8.336611,0.94570965,4.8243165,-0.12689269,0.007182605,-0.22505496,3,-0.02565634,0.15515977,-0.052534413,0
1695104283112,3,8.307879,0.91458505,4.853047,-0.05746084,-0.15083471,-0.15322891,3,-0.02321288,0.16371189,-0.06352998,0
1695104283122,3,8.327033,0.8379706,4.8099513,-0.04309563,-0.15083471,-0.1388637,3,-0.015882496,0.16126843,-0.07574729,0
1695104283163,3,8.293514,0.9624691,4.8482585,-0.07182605,-0.18195933,-0.110133275,3,-0.013439035,0.14905111,-0.080634214,0
1695104283163,3,8.123527,1.0055647,4.9176903,-0.07182605,-0.18195933,-0.110133275,3,-0.013439035,0.14905111,-0.080634214,0
1695104283164,3,7.991845,1.1324574,5.1379566,-0.07182605,-0.18195933,-0.110133275,3,-0.013439035,0.14905111,-0.080634214,0
1695104283164,3,7.819463,1.1803415,5.0637364,-0.07182605,-0.18195933,-0.110133275,3,-0.013439035,0.14905111,-0.080634214,0
1695104283173,3,7.8649526,1.2258313,4.9536033,-0.37828386,0.033518825,0.15322891,3,-0.009773844,0.08674286,-0.02076942,0
1695104283184,3,7.929596,1.1563994,5.0781016,-0.545878,0.08140286,0.07182605,3,-0.02321288,0.059864793,-0.004886922,0
1695104283193,3,8.0445175,1.0845734,4.9799395,-0.49559975,0.12449849,-0.045489833,3,-0.040317107,0.013439035,0.010995574,0
1695104283203,3,8.2169,1.0103531,4.9536033,-0.4261679,0.05746084,0.07182605,3,-0.040317107,0.013439035,0.010995574,0
1695104283212,3,8.1642275,0.9744401,4.999093,-0.30885202,-0.009576807,-0.02873042,3,-0.042760566,-0.004886922,0.009773844,0
1695104283222,3,8.073248,0.92655605,4.924873,-0.1340753,-0.08379706,-0.059855044,3,-0.035430185,-0.021991149,0.0,0
1695104283262,3,7.9990277,0.89782566,4.903325,-0.18674773,-0.11731588,-0.016759412,3,-0.02565634,-0.02076942,-0.010995574,0
1695104283263,3,8.010999,1.0295067,4.9081135,-0.18674773,-0.11731588,-0.016759412,3,-0.02565634,-0.02076942,-0.010995574,0
1695104283264,3,8.106767,1.1085154,4.927267,-0.18674773,-0.11731588,-0.016759412,3,-0.02565634,-0.02076942,-0.010995574,0
1695104283263,3,7.941567,1.1204864,4.8985367,-0.18674773,-0.11731588,-0.016759412,3,-0.02565634,-0.02076942,-0.010995574,0
1695104283285,3,8.204929,1.067814,4.8985367,-0.12449849,-0.033518825,-0.15083471,3,-0.008552114,0.035430185,-0.089186326,0
1695104283272,3,8.219295,1.0654198,4.8745947,-0.40701428,0.02873042,-0.11971009,3,-0.0036651916,0.021991149,-0.07574729,0
1695104283293,3,8.209718,1.0654198,4.8985367,-0.12449849,-0.033518825,-0.15083471,3,-0.008552114,0.035430185,-0.089186326,0
1695104283303,3,8.204929,1.0773908,4.829105,-0.1340753,-0.038307227,-0.1316811,3,-0.009773844,0.04520403,-0.09040806,0
1695104283313,3,8.121132,1.0079589,4.9200845,-0.12689269,-0.045489833,-0.1340753,3,-0.008552114,0.05497787,-0.09040806,0
1695104283323,3,8.001422,1.1180922,4.9559975,-0.12928689,-0.04070143,-0.20829555,3,-0.004886922,0.06963864,-0.09040806,0
1695104283366,3,7.943961,1.1971009,5.0158525,-0.20829555,-0.11731588,-0.11971009,3,0.0,0.08307768,-0.087964594,0
1695104283366,3,7.9248075,1.2545617,5.0637364,-0.20829555,-0.11731588,-0.11971009,3,0.0,0.08307768,-0.087964594,0
1695104283367,3,7.9750857,1.3239936,5.046977,-0.20829555,-0.11731588,-0.11971009,3,0.0,0.08307768,-0.087964594,0
1695104283367,3,8.0445175,1.2282255,5.070919,-0.20829555,-0.11731588,-0.11971009,3,0.0,0.08307768,-0.087964594,0
1695104283376,3,8.008605,1.2856863,5.023035,-0.33518824,0.17238252,-0.021547815,3,0.010995574,0.07452556,-0.05009095,0
1695104283384,3,8.037335,1.2090719,5.0254292,-0.260968,0.07182605,-0.0047884034,3,0.009773844,0.073303826,-0.043982297,0
1695104283394,3,8.061277,1.1683705,4.9464207,-0.29209262,0.12210429,-0.059855044,3,0.007330383,0.07086037,-0.040317107,0
1695104283403,3,8.173804,1.1587936,4.9224787,-0.25857377,0.04070143,-0.06464344,3,0.0012217305,0.06963864,-0.042760566,0
1695104283413,3,8.09719,1.0989386,4.9655743,-0.22744916,-0.0023942017,-0.15083471,3,-0.0036651916,0.065973446,-0.040317107,0
1695104283423,3,8.042124,1.079785,5.0397944,-0.11252748,-0.016759412,-0.17956513,3,-0.012217305,0.061086524,-0.02565634,0
1695104283457,3,8.042124,1.1994951,5.197812,-0.18435353,-0.079008654,-0.1436521,3,-0.028099801,-0.02443461,0.032986723,0
1695104283458,3,7.953538,1.2904748,5.1906295,-0.18435353,-0.079008654,-0.1436521,3,-0.028099801,-0.02443461,0.032986723,0
1695104283458,3,7.893683,1.2785037,5.149928,-0.18435353,-0.079008654,-0.1436521,3,-0.028099801,-0.02443461,0.032986723,0
1695104283467,3,7.905654,1.1827357,5.046977,-0.320823,0.107739076,0.06703765,3,-0.028099801,-0.02443461,0.032986723,0
1695104283473,3,7.9870567,1.1204864,5.070919,-0.37828386,0.09816227,0.023942016,3,-0.032986723,-0.05375614,0.035430185,0
1695104283484,3,8.051701,1.1252748,5.094861,-0.36631286,0.0047884034,-0.076614454,3,-0.04153884,-0.07941248,0.030543262,0
1695104283493,3,7.93199,1.0271125,5.080496,-0.28491,-0.05267244,-0.05267244,3,-0.043982297,-0.096516706,0.02321288,0
1695104283503,3,7.989451,1.0773908,5.094861,-0.22266077,-0.045489833,-0.02633622,3,-0.037873644,-0.111177474,0.008552114,0
1695104283513,3,7.989451,1.1468226,5.0421886,-0.34476504,-0.1412579,-0.035913024,3,-0.028099801,-0.12950343,-0.0061086523,0
1695104283523,3,8.02297,1.2761095,4.996699,-0.2896984,-0.088585466,-0.019153614,3,-0.015882496,-0.15271631,-0.013439035,0
1695104283561,3,8.149862,1.1563994,4.9344497,-0.29209262,-0.019153614,-0.06703765,3,-0.009773844,-0.17959438,-0.009773844,0
1695104283561,3,8.178593,1.2497733,4.915296,-0.29209262,-0.019153614,-0.06703765,3,-0.009773844,-0.17959438,-0.009773844,0
1695104283562,3,8.252813,1.3359646,4.8865657,-0.29209262,-0.019153614,-0.06703765,3,-0.009773844,-0.17959438,-0.009773844,0
1695104283570,3,8.202535,1.2761095,4.8506527,-0.11971009,0.079008654,-0.16759412,3,-0.008552114,-0.2406809,0.02687807,0
1695104283575,3,8.209718,1.2401965,4.709395,-0.055066638,0.16519992,-0.18195933,3,-0.010995574,-0.24678956,0.037873644,0
1695104283585,3,8.283937,1.2258313,4.594473,-0.11492168,0.10534488,-0.20111294,3,-0.014660766,-0.24312437,0.047647487,0
1695104283594,3,8.300697,1.1109096,4.5633483,-0.11971009,0.06943185,-0.32561144,3,-0.02687807,-0.23090707,0.058643065,0
1695104283604,3,8.413225,1.1204864,4.6926355,-0.055066638,0.055066638,-0.4213795,3,-0.039095376,-0.2125811,0.073303826,0
1695104283614,3,8.331821,1.0175357,4.7309427,-0.05267244,-0.05267244,-0.4309563,3,-0.043982297,-0.18936823,0.08552113,0
1695104283624,3,8.300697,1.0606314,4.7668557,0.047884032,-0.038307227,-0.28491,3,-0.04520403,-0.16249016,0.09773844,0
1695104283661,3,8.204929,1.0582372,4.72376,-0.320823,-0.062249243,-0.29209262,3,-0.028099801,0.040317107,0.07452556,0
1695104283662,3,8.078036,1.0606314,4.6351743,-0.320823,-0.062249243,-0.29209262,3,-0.028099801,0.040317107,0.07452556,0
1695104283662,3,8.037335,1.2330139,4.6519337,-0.320823,-0.062249243,-0.29209262,3,-0.028099801,0.040317107,0.07452556,0
1695104283671,3,8.135497,1.2497733,4.6591167,-0.320823,-0.062249243,-0.29209262,3,-0.028099801,0.040317107,0.07452556,0
1695104283676,3,8.401254,1.151611,4.5777135,-0.36391866,0.11731588,-0.272939,3,-0.029321533,0.1001819,0.06963864,0
1695104283687,3,8.487445,1.1372458,4.5657425,-0.2657564,0.1388637,-0.2657564,3,-0.032986723,0.16371189,0.062308256,0
1695104283694,3,8.50181,1.2090719,4.63278,0.0,0.04309563,-0.35434186,3,-0.032986723,0.23701571,0.062308256,0
1695104283704,3,8.561666,1.2449849,4.5441947,0.090979666,0.031124622,-0.37349546,3,-0.032986723,0.3213151,0.07819075,0
1695104283714,3,8.63828,1.2569559,4.5441947,0.11252748,0.10295067,-0.31603462,3,-0.04153884,0.41783184,0.10995574,0
1695104283724,3,8.499416,1.1875241,4.546589,0.17238252,0.1364695,-0.40462008,3,-0.056199603,0.54000485,0.15027285,0
1695104283762,3,8.355764,1.1109096,4.6662993,0.25139117,0.14604631,-0.40940848,3,-0.080634214,0.6805039,0.1881465,0
1695104283763,3,8.288726,0.8882488,4.8722005,0.25139117,0.14604631,-0.40940848,3,-0.080634214,0.6805039,0.1881465,0
1695104283763,3,8.161834,0.8643068,5.0038815,0.25139117,0.14604631,-0.40940848,3,-0.080634214,0.6805039,0.1881465,0
1695104283765,3,7.8769236,0.6392518,5.159505,-0.088585466,-0.21787235,-0.093373865,3,-0.11728613,1.2327261,0.2724459,0
1695104283782,3,7.565677,0.6895301,5.2409077,-0.19393034,-0.22505496,-0.0047884034,3,-0.10751228,1.4257594,0.29810223,0
1695104283787,3,7.419631,0.9768343,5.2289367,-0.45010993,-0.4285621,0.09816227,3,-0.10140363,1.609019,0.344528,0
1695104283794,3,7.6853876,1.2354081,5.5282116,-0.7206547,-0.34715924,0.107739076,3,-0.103847094,1.7605137,0.39950588,0
1695104283805,3,8.066066,1.30484,5.6359506,-0.81163436,-0.02633622,0.0,3,-0.12339478,1.8533652,0.42271876,0
1695104283814,3,8.152257,1.1587936,5.7389016,-0.45250413,0.272939,0.14844051,3,-0.13316862,1.9107865,0.38240165,0
1695104283825,3,7.9272017,0.5746084,6.5265937,0.0047884034,0.37349546,0.1316811,3,-0.10873401,1.9975294,0.27122417,0
1695104283891,3,7.467515,0.21068975,6.564901,0.0047884034,0.37349546,0.1316811,3,-0.10873401,1.9975294,0.27122417,0
1695104283891,3,6.895301,-0.60333884,6.5026517,0.0047884034,0.37349546,0.1316811,3,-0.10873401,1.9975294,0.27122417,0
1695104283892,3,6.4763155,-0.7374141,6.7588315,0.0047884034,0.37349546,0.1316811,3,-0.10873401,1.9975294,0.27122417,0
1695104283892,3,5.920861,-0.7350199,7.4004774,0.0047884034,0.37349546,0.1316811,3,-0.10873401,1.9975294,0.27122417,0
1695104283893,3,5.3965306,-0.62009823,8.209718,0.0047884034,0.37349546,0.1316811,3,-0.10873401,1.9975294,0.27122417,0
1695104283893,3,4.6950297,-0.0047884034,8.468291,0.0047884034,0.37349546,0.1316811,3,-0.10873401,1.9975294,0.27122417,0
1695104283904,3,4.3023806,1.0151415,8.544906,-1.9033904,-1.6639702,1.7501614,3,0.63407815,0.85154617,-0.8405506,0
1695104283910,3,4.2425256,2.0590134,8.4587145,-2.5139117,-1.1180922,1.9177556,3,0.593761,0.3933972,-0.59742624,0
1695104283917,3,4.6255975,2.6001031,7.967903,-2.825158,-0.17238252,1.9201498,3,0.5326745,-0.07819075,-0.3323107,0
1695104283930,3,5.2121773,2.5258827,7.620744,-2.8395233,0.8283938,1.7908629,3,0.43371433,-0.516792,-0.12705997,0
1695104283969,3,5.7508726,2.2002714,7.4507556,-2.432509,1.3335704,1.2808979,3,0.31031954,-0.8894198,0.013439035,0
1695104283970,3,6.196194,1.9871874,7.1083846,-2.432509,1.3335704,1.2808979,3,0.31031954,-0.8894198,0.013439035,0
1695104283970,3,6.423643,1.8674773,6.813898,-2.432509,1.3335704,1.2808979,3,0.31031954,-0.8894198,0.013439035,0
1695104283970,3,6.7612257,1.9129672,6.4739213,-2.432509,1.3335704,1.2808979,3,0.31031954,-0.8894198,0.013439035,0
1695104283982,3,7.050924,1.9009962,6.1123967,-0.7589619,0.5482722,0.272939,3,0.058643065,-1.6713274,0.37507126,0
1695104283989,3,7.503428,2.0135236,5.7867856,-0.48602295,0.59855044,0.0047884034,3,-0.10873401,-1.881465,0.6267477,0
1695104283995,3,7.6829934,1.9321208,5.4420204,-0.28491,0.60094464,-0.25617957,3,-0.17104226,-1.9388863,0.7110472,0
1695104284005,3,7.8290396,1.8004397,5.056554,0.08379706,0.7469909,-0.49320555,3,-0.22113322,-1.9449949,0.75991637,0
1695104284015,3,7.8912888,1.5011644,4.6495395,0.1388637,0.7254431,-0.7015011,3,-0.26389378,-1.8912388,0.7770206,0
1695104284063,3,7.9750857,1.1180922,4.249708,0.20829555,0.62967503,-0.9983821,3,-0.29565877,-1.7763962,0.7623598,0
1695104284064,3,8.413225,0.7110779,4.015076,0.20829555,0.62967503,-0.9983821,3,-0.29565877,-1.7763962,0.7623598,0
1695104284064,3,8.561666,0.5363012,3.9097314,0.20829555,0.62967503,-0.9983821,3,-0.29565877,-1.7763962,0.7623598,0
1695104284063,3,8.169016,0.9552865,4.1252093,0.20829555,0.62967503,-0.9983821,3,-0.29565877,-1.7763962,0.7623598,0
1695104284072,3,8.846576,0.33997664,3.9600096,0.41180268,-0.22984336,-1.5705963,3,-0.23335053,-0.9859365,0.61819565,0
1695104284078,3,8.908825,0.34237084,4.0677485,0.48841715,-0.35194764,-1.5825673,3,-0.1966986,-0.7257079,0.59131753,0
1695104284094,3,8.942344,0.25139117,4.3263226,0.7158663,-0.49559975,-1.4532804,3,-0.15271631,-0.43982297,0.56688297,0
1695104284095,3,8.834604,0.33518824,4.27365,0.7326257,-0.4429273,-1.283292,3,-0.118507855,-0.14905111,0.54000485,0
1695104284106,3,8.693346,0.36870706,4.3047748,0.7326257,-0.48841715,-0.9816227,3,-0.095294975,0.12095132,0.51068336,0
1695104284115,3,8.647857,0.44771573,4.268862,0.60333884,-0.35434186,-1.0079589,3,-0.081855945,0.3921755,0.48380527,0
1695104284160,3,8.75799,0.5530606,4.3167458,0.45489833,-0.28491,-0.9672575,3,-0.08307768,0.6817256,0.46792278,0
1695104284161,3,8.801085,0.50517654,4.489128,0.45489833,-0.28491,-0.9672575,3,-0.08307768,0.6817256,0.46792278,0
1695104284161,3,8.688558,0.48362875,4.5872903,0.45489833,-0.28491,-0.9672575,3,-0.08307768,0.6817256,0.46792278,0
1695104284162,3,8.652645,0.49081135,4.8362875,0.45489833,-0.28491,-0.9672575,3,-0.08307768,0.6817256,0.46792278,0
1695104284171,3,8.293514,0.16998832,5.4204726,0.545878,-0.019153614,-0.8499416,3,-0.16126843,1.8912388,0.33964106,0
1695104284177,3,6.5146227,-1.2090719,6.5241995,0.5674258,0.016759412,-0.6871359,3,-0.17470746,2.1368067,0.25900686,0
1695104284187,3,6.4188547,-1.2330139,7.252037,0.2801216,-0.2705448,-0.21068975,3,-0.095294975,2.2919664,0.07819075,0
1695104284196,3,6.227319,-1.1803415,7.050924,-1.4101849,-1.6256629,0.7685388,3,0.09407325,2.2088888,-0.21502456,0
1695104284206,3,6.1507044,-1.3623008,6.691794,-1.3958195,-1.6328455,1.3479356,3,0.21991149,1.9743165,-0.49113566,0
1695104284216,3,6.2249246,-1.3192052,6.9000893,-1.4580688,-1.5897499,0.9792285,3,0.29932398,1.7996091,-0.73792523,0
1695104284265,3,6.227319,-0.78290397,7.9272017,-1.436521,-1.7956513,0.49799395,3,0.41172317,1.5931365,-0.9138544,0
1695104284266,3,6.4260373,-0.09816227,8.499416,-1.436521,-1.7956513,0.49799395,3,0.41172317,1.5931365,-0.9138544,0
1695104284266,3,6.129156,0.46208093,8.480263,-1.436521,-1.7956513,0.49799395,3,0.41172317,1.5931365,-0.9138544,0
1695104284267,3,5.7748146,1.0247183,8.051701,-1.436521,-1.7956513,0.49799395,3,0.41172317,1.5931365,-0.9138544,0
1695104284267,3,5.7389016,1.2665327,7.9822683,-1.436521,-1.7956513,0.49799395,3,0.41172317,1.5931365,-0.9138544,0
1695104284279,3,5.6096144,1.520318,7.8888946,-1.3838485,0.29209262,1.3934253,3,0.43493605,-0.13439035,-0.593761,0
1695104284287,3,5.683835,1.6831238,7.5465236,-1.3838485,0.50278234,1.2904748,3,0.38606682,-0.44226643,-0.46670106,0
1695104284296,3,5.93762,1.7310078,7.2783732,-1.4939818,0.7110779,1.1803415,3,0.34330627,-0.7257079,-0.35308012,0
1695104284306,3,6.184223,1.8267759,7.026982,-1.412579,0.8451532,0.8331822,3,0.31031954,-0.9810496,-0.24801129,0
1695104284316,3,6.4858923,1.9847932,6.667852,-1.1779473,0.8499416,0.59376204,3,0.27488935,-1.1948525,-0.14782938,0
1695104284361,3,6.8210807,2.099715,6.327875,-0.9528923,0.91937345,0.36870706,3,0.24678956,-1.3744467,-0.05131268,0
1695104284362,3,7.144298,2.1428106,5.9567738,-0.9528923,0.91937345,0.36870706,3,0.24678956,-1.3744467,-0.05131268,0
1695104284362,3,7.2687964,2.0709844,5.746084,-0.9528923,0.91937345,0.36870706,3,0.24678956,-1.3744467,-0.05131268,0
1695104284363,3,7.40766,2.0039468,5.482722,-0.9528923,0.91937345,0.36870706,3,0.24678956,-1.3744467,-0.05131268,0
1695104284377,3,7.644686,1.8914193,4.5753193,-0.06943185,1.0007763,-0.7757214,3,0.08307768,-1.8912388,0.40317106,0
1695104284372,3,7.517793,1.9991584,4.8961425,-0.11731588,1.0726024,-0.61770403,3,0.09773844,-1.844813,0.3555236,0
1695104284388,3,7.8027034,1.5298948,4.465186,-0.05746084,0.9935937,-1.2425907,3,0.09162979,-1.8729129,0.41172317,0
1695104284396,3,8.027759,1.3670892,4.173094,-0.031124622,0.8882488,-1.436521,3,0.07941248,-1.7947221,0.43493605,0
1695104284407,3,8.269572,1.151611,4.1635165,0.019153614,0.5315128,-1.412579,3,0.06963864,-1.6554449,0.45937067,0
1695104284417,3,8.556877,1.0510546,4.280833,0.1340753,0.38307226,-1.5586253,3,0.04520403,-1.4782939,0.5009095,0
1695104284461,3,8.810662,1.0223241,4.050989,0.29448682,0.17956513,-1.4532804,3,0.014660766,-1.2681563,0.5497787,0
1695104284461,3,9.074024,0.81163436,3.8762126,0.29448682,0.17956513,-1.4532804,3,0.014660766,-1.2681563,0.5497787,0
1695104284461,3,9.172187,0.7015011,3.9815574,0.29448682,0.17956513,-1.4532804,3,0.014660766,-1.2681563,0.5497787,0
1695104284462,3,9.081207,0.6823475,3.8714242,0.29448682,0.17956513,-1.4532804,3,0.014660766,-1.2681563,0.5497787,0
1695104284470,3,9.062054,0.46447513,3.9360676,0.93373865,-0.1436521,-1.2641385,3,-0.12583824,-0.04886922,0.63041294,0
1695104284479,3,8.966286,0.33518824,4.173094,0.80924016,-0.12210429,-1.328782,3,-0.16493362,0.27977628,0.5876524,0
1695104284488,3,8.767567,0.18195933,4.297592,0.7733272,-0.29688102,-1.2425907,3,-0.18692477,0.6035349,0.5180137,0
1695104284497,3,8.6334915,0.076614454,4.453215,0.6727707,-0.38067806,-1.0055647,3,-0.19425514,0.9224065,0.44104472,0
1695104284508,3,8.51857,-0.01436521,4.709395,0.48362875,-0.49320555,-0.90021986,3,-0.19425514,1.2351695,0.37384954,0
1695104284517,3,8.4347725,0.08379706,4.8961425,0.37828386,-0.5554548,-0.79726917,3,-0.18570304,1.5308284,0.3213151,0
1695104284564,3,8.360553,0.20590134,5.12838,0.29688102,-0.61291564,-0.59615624,3,-0.17104226,1.7947221,0.2846632,0
1695104284565,3,8.291121,0.4237737,5.257667,0.29688102,-0.61291564,-0.59615624,3,-0.17104226,1.7947221,0.2846632,0
1695104284565,3,7.9487495,0.19393034,5.6910176,0.29688102,-0.61291564,-0.59615624,3,-0.17104226,1.7947221,0.2846632,0
1695104284565,3,5.6551046,-1.7501614,6.7827735,0.29688102,-0.61291564,-0.59615624,3,-0.17104226,1.7947221,0.2846632,0
1695104284574,3,5.48751,-1.4891934,7.7213006,0.019153614,-0.2777274,-0.05267244,3,-0.1160644,2.2956316,-0.09162979,0
1695104284579,3,5.559336,-1.2856863,7.8290396,-2.1619642,-2.2026656,0.8834604,3,0.095294975,2.0341814,-0.37873647,0
1695104284588,3,6.10282,-0.80205756,7.386112,-2.2242134,-1.9273324,1.685518,3,0.25534168,1.4941764,-0.593761,0
1695104284597,3,6.133945,0.02873042,7.726089,-2.0231004,-1.7429788,1.6328455,3,0.36041048,1.078788,-0.73792523,0
1695104284607,3,5.8562174,1.0271125,8.238448,-1.388637,-1.2952632,1.0821792,3,0.4605924,0.7281514,-0.7367035,0
1695104284617,3,5.853823,1.8052281,8.257602,-1.2761095,-0.51954174,1.3335704,3,0.48747048,0.3848451,-0.60231316,0
1695104284660,3,6.0980315,1.6591818,7.795521,-1.5035586,0.4333505,1.7908629,3,0.4129449,-0.02076942,-0.4166101,0
1695104284661,3,6.397307,1.42455,7.479486,-1.5035586,0.4333505,1.7908629,3,0.4129449,-0.02076942,-0.4166101,0
1695104284661,3,6.703765,1.2090719,7.120356,-1.5035586,0.4333505,1.7908629,3,0.4129449,-0.02076942,-0.4166101,0
1695104284662,3,6.9886746,1.2761095,6.76362,-1.5035586,0.4333505,1.7908629,3,0.4129449,-0.02076942,-0.4166101,0
1695104284670,3,7.132327,1.5346833,6.3111157,-0.60812724,0.48362875,0.63206923,3,0.14049901,-1.2302825,-0.087964594,0
1695104284681,3,7.2448545,1.5753847,6.2225304,-0.35434186,0.5315128,0.31124622,3,0.12339478,-1.4257594,-0.035430185,0
1695104284689,3,7.2711906,1.5969325,6.007052,-0.25617957,0.7757214,-0.08379706,3,0.080634214,-1.6077974,0.018325957,0
1695104284698,3,7.204153,1.352724,5.913678,-0.20350714,0.79966336,-0.10055647,3,0.009773844,-1.9046779,0.07819075,0
1695104284708,3,7.326257,1.3694834,5.2480903,-0.25139117,0.80684596,-0.22744916,3,0.009773844,-1.9046779,0.07819075,0
1695104284718,3,7.4603324,1.3431472,4.903325,-0.4189853,0.5554548,-0.19393034,3,0.018325957,-1.9938642,0.07941248,0
1695104284759,3,7.6614456,1.1923125,4.4795513,-0.37588966,0.5602432,-0.7613561,3,0.036651913,-2.0415115,0.081855945,0
1695104284759,3,7.893683,1.0534488,3.8474822,-0.37588966,0.5602432,-0.7613561,3,0.036651913,-2.0415115,0.081855945,0
1695104284760,3,8.204929,1.1013328,3.6296098,-0.37588966,0.5602432,-0.7613561,3,0.036651913,-2.0415115,0.081855945,0
1695104284760,3,8.449138,1.1133038,3.5458126,-0.37588966,0.5602432,-0.7613561,3,0.036651913,-2.0415115,0.081855945,0
1695104284780,3,8.722076,1.1300632,3.4452562,0.10534488,0.25139117,-1.8291701,3,0.23701571,-1.396438,0.09040806,0
1695104284781,3,9.0476885,1.0893618,3.5075054,0.10534488,0.25139117,-1.8291701,3,0.23701571,-1.396438,0.09040806,0
1695104284789,3,9.31105,1.079785,3.5434184,0.46686932,0.25378537,-1.7717092,3,0.18570304,-0.906524,0.23090707,0
1695104284798,3,9.421184,1.1851299,3.596091,0.7254431,0.20829555,-1.5993267,3,0.118507855,-0.6047566,0.32742378,0
1695104284808,3,9.3661175,1.103727,3.6032736,0.94331545,0.20111294,-1.4891934,3,0.02443461,-0.27488935,0.4361578,0
1695104284818,3,9.3182335,0.93134445,3.6870706,1.0103531,0.32321724,-1.364695,3,-0.08552113,0.042760566,0.5180137,0
1695104284861,3,9.220071,0.61530983,3.7325604,0.93134445,0.25857377,-1.3215994,3,-0.17104226,0.3323107,0.54733527,0
1695104284862,3,9.169792,0.5506664,3.8522706,0.93134445,0.25857377,-1.3215994,3,-0.17104226,0.3323107,0.54733527,0
1695104284862,3,9.126697,0.4237737,3.9552212,0.93134445,0.25857377,-1.3215994,3,-0.17104226,0.3323107,0.54733527,0
1695104284862,3,9.126697,0.44532153,4.0653543,0.93134445,0.25857377,-1.3215994,3,-0.17104226,0.3323107,0.54733527,0
1695104284871,3,9.052477,0.36152446,4.1156325,0.6919243,-0.25857377,-0.9935937,3,-0.36896262,1.5027285,0.5180137,0
1695104284880,3,8.980651,0.34715924,4.156334,0.7254431,-0.18195933,-0.94810385,3,-0.40194935,1.8020525,0.49235737,0
1695104284889,3,9.018958,0.2657564,4.3957543,0.6919243,-0.21547815,-0.9720459,3,-0.42638394,2.098933,0.44837508,0
1695104284904,3,8.755595,0.1412579,4.6806645,0.6751649,-0.17956513,-1.0247183,3,-0.43982297,2.3652701,0.38240165,0
1695104284909,3,6.289568,-2.0398598,5.825093,0.78290397,-0.21068975,-0.90021986,3,-0.45081854,2.5864034,0.29565877,0
1695104284918,3,5.2026005,-1.7956513,6.5696893,0.61530983,-0.28491,-0.7637503,3,-0.4092797,2.7476718,0.16371189,0
1695104284962,3,5.48751,-1.3599066,7.441179,-1.7669208,-2.4277205,0.25378537,3,-0.15882497,2.7097983,-0.119729586,0
1695104284963,3,6.0285997,-1.1755531,7.3525934,-1.7669208,-2.4277205,0.25378537,3,-0.15882497,2.7097983,-0.119729586,0
1695104284963,3,6.4619503,-0.63206923,6.6415157,-1.7669208,-2.4277205,0.25378537,3,-0.15882497,2.7097983,-0.119729586,0
1695104284963,3,6.694188,0.08379706,7.680599,-1.7669208,-2.4277205,0.25378537,3,-0.15882497,2.7097983,-0.119729586,0
1695104284973,3,6.9000893,0.91697925,8.532935,-1.1013328,-1.0319009,0.4165911,3,0.548557,1.1972959,-1.0445796,0
1695104284983,3,6.6271505,1.5490485,8.76996,-0.7757214,-0.39264908,1.3503298,3,0.63041294,0.81489426,-0.9944886,0
1695104284990,3,6.136339,2.1260512,8.149862,-0.49081135,0.35434186,2.1164744,3,0.5656612,0.44593164,-0.82833326,0
1695104284998,3,5.78918,2.2481554,7.503428,-0.7038953,0.90500826,2.2936451,3,0.44348818,0.095294975,-0.59131753,0
1695104285010,3,5.7125654,2.1547816,7.383718,-1.1468226,1.4173675,1.6280571,3,0.30909783,-0.22113322,-0.35063666,0
1695104285020,3,5.896919,1.9656396,7.1275387,-1.4628572,1.4796166,0.9528923,3,0.17837265,-0.5021312,-0.14172074,0
1695104285068,3,6.5265937,1.733402,6.615179,-1.5251064,1.3503298,0.82121116,3,0.08307768,-0.75869465,0.012217305,0
1695104285068,3,6.799533,1.6089035,6.3422403,-1.5251064,1.3503298,0.82121116,3,0.08307768,-0.75869465,0.012217305,0
1695104285067,3,6.196194,1.7621324,6.885724,-1.5251064,1.3503298,0.82121116,3,0.08307768,-0.75869465,0.012217305,0
1695104285069,3,7.1466923,1.2545617,5.7149596,-1.5251064,1.3503298,0.82121116,3,0.08307768,-0.75869465,0.012217305,0
1695104285084,3,7.3166804,0.9720459,5.3342814,-0.37349546,0.7206547,-0.2873042,3,-0.19792034,-1.5882497,0.38973203,0
1695104285068,3,7.03177,1.5729905,6.0764837,-1.5251064,1.3503298,0.82121116,3,0.08307768,-0.75869465,0.012217305,0
1695104285090,3,7.541735,0.78290397,5.023035,-0.33279404,0.4165911,-0.5650316,3,-0.2284636,-1.6163495,0.42760566,0
1695104285099,3,7.836222,0.51714754,4.7189717,-0.25139117,0.15801731,-0.8403648,3,-0.24556783,-1.6029104,0.45814893,0
1695104285110,3,8.135497,0.34237084,4.5920787,-0.10295067,-0.0047884034,-1.0606314,3,-0.24312437,-1.5344934,0.47403142,0
1695104285119,3,8.420407,0.24181437,4.453215,0.093373865,-0.22984336,-1.2473791,3,-0.22602014,-1.4220943,0.47647488,0
1695104285168,3,8.655039,0.15322891,4.3861775,0.31603462,-0.36870706,-1.2785037,3,-0.19181168,-1.2632693,0.47403142,0
1695104285169,3,8.825027,0.24660277,4.343082,0.31603462,-0.36870706,-1.2785037,3,-0.19181168,-1.2632693,0.47403142,0
1695104285170,3,8.813056,0.20829555,4.462792,0.31603462,-0.36870706,-1.2785037,3,-0.19181168,-1.2632693,0.47403142,0
1695104285169,3,8.848969,0.17238252,4.333505,0.31603462,-0.36870706,-1.2785037,3,-0.19181168,-1.2632693,0.47403142,0
1695104285170,3,8.688558,0.35434186,4.4795513,0.31603462,-0.36870706,-1.2785037,3,-0.19181168,-1.2632693,0.47403142,0
1695104285181,3,8.475474,0.4309563,4.4484267,0.6847417,-0.29448682,-0.9959879,3,-0.062308256,-0.04642576,0.36774087,0
1695104285191,3,8.394072,0.36631286,4.3143516,0.5363012,-0.11971009,-0.94331545,3,-0.0720821,0.20891592,0.31764993,0
1695104285199,3,8.420407,0.24660277,4.4580035,0.30885202,-0.009576807,-0.9552865,3,-0.080634214,0.4642576,0.23701571,0
1695104285211,3,8.429984,0.23463176,4.630386,0.22505496,-0.047884032,-1.0893618,3,-0.08552113,0.7244862,0.15149458,0
1695104285219,3,8.322245,0.20111294,4.8362875,0.2633622,-0.1436521,-0.9672575,3,-0.09285152,0.9896017,0.08307768,0
1695104285266,3,8.279149,0.29688102,4.8937483,0.29448682,-0.1436521,-0.82599956,3,-0.103847094,1.2547172,0.03176499,0
1695104285266,3,8.231265,0.36870706,4.9440265,0.29448682,-0.1436521,-0.82599956,3,-0.103847094,1.2547172,0.03176499,0
1695104285267,3,8.09719,0.25378537,5.1642933,0.29448682,-0.1436521,-0.82599956,3,-0.103847094,1.2547172,0.03176499,0
1695104285267,3,6.445191,-1.079785,6.2752028,0.29448682,-0.1436521,-0.82599956,3,-0.103847094,1.2547172,0.03176499,0
1695104285277,3,6.136339,-0.8810662,7.0485296,0.18435353,-0.095768064,-0.61291564,3,-0.103847094,2.057394,-0.14049901,0
1695104285281,3,6.2345014,-0.6440403,7.2687964,-1.3790601,-1.4269443,0.37828386,3,0.039095376,1.9437732,-0.3200934,0
1695104285291,3,6.50744,-0.60573304,7.074866,-1.5825673,-1.2258313,1.0175357,3,0.16493362,1.5919148,-0.48502702,0
1695104285300,3,6.691794,-0.32321724,7.299921,-1.3790601,-1.0031705,1.103727,3,0.24678956,1.3158038,-0.64751714,0
1695104285310,3,6.612785,0.37828386,8.001422,-1.0127473,-0.9959879,0.79966336,3,0.35918877,1.078788,-0.73548174,0
1695104285321,3,6.5457473,1.1755531,8.312668,-0.7398083,-0.7637503,0.92176765,3,0.45814893,0.8185594,-0.7110472,0
1695104285363,3,5.8801594,2.042254,7.6949644,-0.7589619,-0.107739076,1.5562311,3,0.45081854,0.49846604,-0.5705481,0
1695104285362,3,6.220136,1.7836803,8.161834,-0.7589619,-0.107739076,1.5562311,3,0.45081854,0.49846604,-0.5705481,0
1695104285364,3,6.0262055,1.4149733,7.1131735,-0.7589619,-0.107739076,1.5562311,3,0.45081854,0.49846604,-0.5705481,0
1695104285373,3,6.4547677,1.0941502,6.7731967,-1.42455,0.9888053,0.8499416,3,-0.039095376,-0.60231316,0.17959438,0
1695104285382,3,6.8665705,0.91697925,6.4667387,-1.1947067,0.7613561,0.51475334,3,-0.10873401,-0.77579886,0.25167647,0
1695104285363,3,5.7987566,1.6352397,7.445967,-0.7589619,-0.107739076,1.5562311,3,0.45081854,0.49846604,-0.5705481,0
1695104285391,3,7.2089415,0.8738836,6.033388,-0.7781156,0.44532153,0.18914193,3,-0.15149458,-0.906524,0.2919936,0
1695104285400,3,7.560889,0.7469909,5.8825536,-0.39743748,0.2825158,-0.08379706,3,-0.17715092,-0.9810496,0.32742378,0
1695104285411,3,7.8745294,0.7134721,5.884948,-0.08619126,0.25378537,-0.48362875,3,-0.20525073,-1.0103711,0.3652974,0
1695104285420,3,7.9870567,0.62488663,5.6239796,0.20590134,0.15562311,-0.5722142,3,-0.22357668,-0.9969321,0.39584067,0
1695104285459,3,8.073248,0.38307226,5.473145,0.48123455,0.1412579,-0.5291186,3,-0.23701571,-0.93828905,0.42149702,0
1695104285461,3,8.099585,0.2896984,5.2768207,0.48123455,0.1412579,-0.5291186,3,-0.23701571,-0.93828905,0.42149702,0
1695104285461,3,7.953538,0.17956513,5.1475334,0.48123455,0.1412579,-0.5291186,3,-0.23701571,-0.93828905,0.42149702,0
1695104285461,3,7.7811556,0.090979666,5.08289,0.48123455,0.1412579,-0.5291186,3,-0.23701571,-0.93828905,0.42149702,0
1695104285474,3,7.5704656,0.11492168,5.1020436,0.35673606,-0.24660277,-1.0342951,3,-0.21013765,-0.43249258,0.37751472,0
1695104285480,3,7.539341,-0.007182605,5.195418,0.14604631,-0.29448682,-1.0534488,3,-0.17592919,-0.2883284,0.3042109,0
1695104285492,3,7.6351094,-0.12689269,5.303157,-0.093373865,-0.23463176,-0.9983821,3,-0.13194689,-0.16249016,0.21991149,0
1695104285500,3,7.7787614,-0.05267244,5.3941364,-0.14604631,-0.32561144,-0.878672,3,-0.04642576,0.073303826,0.047647487,0
1695104285511,3,7.8386164,0.06703765,5.509058,-0.06464344,-0.4237737,-0.7541735,3,-0.04642576,0.073303826,0.047647487,0
1695104285521,3,7.8050976,0.1604115,5.592855,0.076614454,-0.34237084,-0.6631939,3,0.008552114,0.25900686,-0.062308256,0
1695104285559,3,7.5800424,0.35913026,5.8562174,0.1316811,-0.21547815,-0.5434838,3,0.021991149,0.32986724,-0.089186326,0
1695104285559,3,7.513005,0.4381389,5.959168,0.1316811,-0.21547815,-0.5434838,3,0.021991149,0.32986724,-0.089186326,0
1695104285561,3,7.5106106,0.5746084,6.0597243,-0.088585466,0.05746084,-0.23942018,3,0.042760566,0.453262,-0.095294975,0
1695104285559,3,7.656657,0.20350714,5.7365074,0.1316811,-0.21547815,-0.5434838,3,0.021991149,0.32986724,-0.089186326,0
1695104285576,3,7.4363904,0.62967503,6.26802,-0.1388637,0.12928689,-0.1604115,3,0.035430185,0.45570546,-0.07574729,0
1695104285581,3,7.5201874,0.6847417,6.2512608,-0.11971009,0.25617957,-0.08379706,3,0.02565634,0.4447099,-0.05375614,0
1695104285592,3,7.4028716,0.5674258,6.373365,-0.17477672,0.30406362,0.09816227,3,0.010995574,0.42638394,-0.032986723,0
1695104285601,3,7.335834,0.48602295,6.4140663,-0.06943185,0.35194764,0.055066638,3,-0.0061086523,0.40317106,-0.012217305,0
1695104285612,3,7.2185183,0.31603462,6.423643,-0.16519992,0.22744916,0.15322891,3,-0.017104227,0.3726278,0.004886922,0
1695104285621,3,7.153875,0.2753332,6.4763155,-0.21068975,0.1436521,0.16519992,3,-0.029321533,0.3371976,0.02321288,0
1695104285662,3,6.9982514,0.090979666,6.423643,-0.30885202,-0.02633622,0.15322891,3,-0.035430185,0.29565877,0.037873644,0
1695104285662,3,6.9120603,0.14604631,6.6367273,-0.30885202,-0.02633622,0.15322891,3,-0.035430185,0.29565877,0.037873644,0
1695104285663,3,6.849811,0.1340753,6.50744,-0.30885202,-0.02633622,0.15322891,3,-0.035430185,0.29565877,0.037873644,0
1695104285663,3,6.9024835,0.110133275,6.495469,-0.30885202,-0.02633622,0.15322891,3,-0.035430185,0.29565877,0.037873644,0
1695104285672,3,6.9862804,0.21787235,6.4882865,-0.62249243,-0.20829555,0.17238252,3,-0.008552114,0.057421334,0.0720821,0
1695104285681,3,7.0940194,0.21068975,6.3685765,-0.5482722,-0.22026655,0.1316811,3,-0.002443461,0.0,0.073303826,0
1695104285693,3,7.180211,0.1316811,6.291962,-0.4405331,-0.095768064,0.095768064,3,-0.0012217305,-0.04886922,0.07574729,0
1695104285701,3,7.2089415,0.15562311,6.2728086,-0.31124622,-0.08619126,-0.047884032,3,-0.002443461,-0.0842994,0.0720821,0
1695104285711,3,7.28795,0.15083471,6.203377,-0.21068975,-0.15322891,-0.1388637,3,-0.0012217305,-0.10140363,0.062308256,0
1695104285722,3,7.309498,0.23463176,6.160281,-0.17717093,-0.11731588,-0.16280572,3,-0.0012217305,-0.10873401,0.05375614,0
1695104285760,3,7.4268136,0.22744916,6.145916,-0.09816227,-0.11252748,-0.23463176,3,0.0,-0.105068825,0.042760566,0
1695104285761,3,7.350199,0.25617957,6.0740895,-0.09816227,-0.11252748,-0.23463176,3,0.0,-0.105068825,0.042760566,0
1695104285762,3,7.395689,0.1316811,6.0381765,-0.09816227,-0.11252748,-0.23463176,3,0.0,-0.105068825,0.042760566,0
1695104285761,3,7.493851,0.2825158,6.0477533,-0.09816227,-0.11252748,-0.23463176,3,0.0,-0.105068825,0.042760566,0
1695104285783,3,7.405266,0.23223756,6.0740895,-0.055066638,0.0047884034,-0.34237084,3,-0.012217305,-0.065973446,0.030543262,0
1695104285784,3,7.5321584,0.34715924,6.0597243,-0.055066638,0.0047884034,-0.34237084,3,-0.012217305,-0.065973446,0.030543262,0
1695104285800,3,7.501034,0.2753332,6.078878,-0.016759412,-0.007182605,-0.32321724,3,-0.008552114,0.008552114,0.004886922,0
1695104285802,3,7.2664022,0.21308395,6.143522,0.10295067,0.107739076,-0.33279404,3,-0.009773844,0.029321533,0.0,0
1695104285812,3,7.2304893,0.36152446,6.14831,0.06703765,0.035913024,-0.30885202,3,-0.0036651916,0.05131268,-0.008552114,0
1695104285822,3,7.321469,0.39983168,6.143522,-0.16998832,-0.023942016,-0.23702596,3,0.0012217305,0.06963864,-0.009773844,0
1695104285859,3,7.261614,0.33758244,6.217742,-0.21068975,0.11971009,-0.22744916,3,-0.0012217305,0.07452556,-0.0036651916,0
1695104285860,3,7.2951326,0.33997664,6.2105594,-0.21068975,0.11971009,-0.22744916,3,-0.0012217305,0.07452556,-0.0036651916,0
1695104285860,3,7.141904,0.2753332,6.2752028,-0.21068975,0.11971009,-0.22744916,3,-0.0012217305,0.07452556,-0.0036651916,0
1695104285874,3,7.204153,0.17477672,6.220136,-0.1436521,0.090979666,-0.16759412,3,-0.010995574,0.06963864,0.012217305,0
1695104285874,3,7.180211,0.21068975,6.2105594,-0.1436521,0.090979666,-0.16759412,3,-0.010995574,0.06963864,0.012217305,0
1695104285884,3,7.28795,0.21787235,6.256049,-0.25378537,-0.038307227,-0.17238252,3,-0.012217305,0.057421334,0.009773844,0
1695104285895,3,7.2544312,0.21068975,6.172252,-0.22744916,-0.074220255,-0.16519992,3,-0.0036651916,0.05009095,0.0036651916,0
1695104285902,3,7.2113357,0.33279404,6.3326635,-0.1412579,-0.02873042,-0.1340753,3,0.0036651916,0.043982297,0.0,0
1695104285912,3,7.192182,0.33758244,6.2728086,-0.17238252,-0.035913024,-0.22026655,3,0.004886922,0.036651913,0.009773844,0
1695104285922,3,7.1706343,0.2825158,6.327875,-0.21308395,0.08379706,-0.062249243,3,0.0,0.02321288,0.02565634,0
1695104285963,3,7.129933,0.36152446,6.2632318,-0.22984336,0.088585466,-0.12449849,3,-0.0036651916,0.012217305,0.032986723,0
1695104285963,3,7.16824,0.17717093,6.2392898,-0.22984336,0.088585466,-0.12449849,3,-0.0036651916,0.012217305,0.032986723,0
1695104285964,3,7.1634517,0.11971009,6.253655,-0.22984336,0.088585466,-0.12449849,3,-0.0036651916,0.012217305,0.032986723,0
1695104285963,3,7.1347213,0.260968,6.277597,-0.22984336,0.088585466,-0.12449849,3,-0.0036651916,0.012217305,0.032986723,0
1695104285984,3,7.1993647,0.16519992,6.191406,-0.25617957,-0.11731588,-0.14604631,3,-0.009773844,-0.014660766,0.028099801,0
1695104285975,3,7.1610575,0.21787235,6.3182983,-0.25139117,-0.062249243,-0.16280572,3,-0.013439035,-0.012217305,0.032986723,0
1695104285994,3,7.2592196,0.20350714,6.2009826,-0.25857377,-0.016759412,-0.08140286,3,-0.0061086523,-0.015882496,0.02076942,0
1695104286002,3,7.2807674,0.11971009,6.2368956,-0.22026655,-0.06703765,-0.20829555,3,-0.0012217305,-0.015882496,0.009773844,0
1695104286012,3,7.249643,0.19632454,6.203377,-0.1604115,-0.02633622,-0.19871874,3,0.0,-0.013439035,-0.0012217305,0
1695104286022,3,7.28795,0.30406362,6.1890116,-0.1412579,-0.107739076,-0.1604115,3,0.002443461,-0.007330383,-0.010995574,0
1695104286058,3,7.3406224,0.2657564,6.2009826,-0.17238252,-0.031124622,-0.19393034,3,0.0,-0.0036651916,-0.017104227,0
1695104286059,3,7.237672,0.25617957,6.215348,-0.17238252,-0.031124622,-0.19393034,3,0.0,-0.0036651916,-0.017104227,0
1695104286059,3,7.273585,0.24420857,6.241684,-0.17238252,-0.031124622,-0.19393034,3,0.0,-0.0036651916,-0.017104227,0
1695104286069,3,7.297527,0.2657564,6.1890116,-0.18435353,0.021547815,-0.18195933,3,-0.0061086523,0.008552114,-0.03176499,0
1695104286073,3,7.28795,0.39025488,6.291962,-0.14844051,0.007182605,-0.15562311,3,-0.0036651916,0.009773844,-0.03176499,0
1695104286082,3,7.2448545,0.39983168,6.232107,-0.12449849,0.02873042,-0.20829555,3,-0.0012217305,0.008552114,-0.028099801,0
1695104286095,3,7.228095,0.36870706,6.241684,-0.1340753,0.15083471,-0.10534488,3,0.0,0.004886922,-0.015882496,0
1695104286102,3,7.192182,0.38067806,6.2464724,-0.17717093,0.15801731,-0.16519992,3,-0.004886922,0.0,0.0,0
1695104286113,3,7.261614,0.37828386,6.2512608,-0.19393034,0.12449849,-0.15562311,3,-0.008552114,-0.002443461,0.010995574,0
1695104286123,3,7.3286514,0.28491,6.1890116,-0.22984336,0.1340753,-0.15083471,3,-0.012217305,-0.0061086523,0.021991149,0
1695104286162,3,7.204153,0.19393034,6.1985884,-0.1604115,0.12928689,-0.14604631,3,-0.015882496,-0.012217305,0.028099801,0
1695104286163,3,7.225701,0.16759412,6.181829,-0.1604115,0.12928689,-0.14604631,3,-0.015882496,-0.012217305,0.028099801,0
1695104286163,3,7.2089415,0.15322891,6.215348,-0.1604115,0.12928689,-0.14604631,3,-0.015882496,-0.012217305,0.028099801,0
1695104286161,3,7.2424603,0.25139117,6.196194,-0.1604115,0.12928689,-0.14604631,3,-0.015882496,-0.012217305,0.028099801,0
1695104286175,3,7.2783732,0.17717093,6.1985884,-0.19871874,-0.076614454,-0.21068975,3,-0.012217305,0.0036651916,-0.0036651916,0
1695104286183,3,7.2687964,0.25617957,6.241684,-0.21787235,-0.088585466,-0.17717093,3,-0.004886922,0.009773844,-0.021991149,0
1695104286196,3,7.1490865,0.2657564,6.2105594,-0.14604631,-0.06464344,-0.19393034,3,0.0012217305,0.010995574,-0.032986723,0
1695104286203,3,7.153875,0.31603462,6.2704144,-0.15562311,0.011971008,-0.15322891,3,0.004886922,0.010995574,-0.034208454,0
1695104286213,3,7.1873937,0.46686932,6.2967505,-0.2753332,0.019153614,-0.18435353,3,0.0012217305,0.007330383,-0.02321288,0
1695104286223,3,7.2807674,0.272939,6.2728086,-0.2705448,0.06464344,-0.12449849,3,-0.0036651916,-0.002443461,-0.009773844,0
1695104286265,3,7.2831616,0.2633622,6.2392898,-0.23463176,0.21547815,-0.09816227,3,-0.009773844,-0.013439035,-0.0036651916,0
1695104286265,3,7.326257,0.31124622,6.205771,-0.23463176,0.21547815,-0.09816227,3,-0.009773844,-0.013439035,-0.0036651916,0
1695104286266,3,7.2687964,0.2801216,6.14831,-0.23463176,0.21547815,-0.09816227,3,-0.009773844,-0.013439035,-0.0036651916,0
1695104286266,3,7.2448545,0.17238252,6.181829,-0.23463176,0.21547815,-0.09816227,3,-0.009773844,-0.013439035,-0.0036651916,0
1695104286277,3,7.2664022,0.21547815,6.14831,-0.15801731,0.02633622,-0.24420857,3,-0.012217305,-0.004886922,-0.007330383,0
1695104286286,3,7.2711906,0.30645782,6.241684,-0.18195933,-0.079008654,-0.20829555,3,-0.009773844,0.0036651916,-0.015882496,0
1695104286295,3,7.275979,0.4405331,6.2512608,-0.1604115,-0.035913024,-0.24181437,3,0.0012217305,0.017104227,-0.040317107,0
1695104286303,3,7.2352777,0.4429273,6.229713,-0.15562311,0.05267244,-0.14844051,3,-0.0036651916,0.018325957,-0.042760566,0
1695104286313,3,7.216124,0.2873042,6.244078,-0.15083471,0.18195933,-0.1412579,3,-0.012217305,0.014660766,-0.037873644,0
1695104286323,3,7.216124,0.23702596,6.2392898,-0.18914193,0.18195933,-0.16280572,3,-0.019547688,0.010995574,-0.034208454,0
1695104286359,3,7.1227503,0.21308395,6.1985884,-0.20829555,0.021547815,-0.14844051,3,-0.02076942,0.010995574,-0.03176499,0
1695104286359,3,7.089231,0.38307226,6.2704144,-0.20829555,0.021547815,-0.14844051,3,-0.02076942,0.010995574,-0.03176499,0
1695104286360,3,7.2664022,0.45489833,6.2752028,-0.20829555,0.021547815,-0.14844051,3,-0.02076942,0.010995574,-0.03176499,0
1695104286369,3,7.261614,0.4333505,6.2368956,-0.33279404,0.110133275,-0.12449849,3,0.0061086523,0.0,-0.017104227,0
1695104286374,3,7.275979,0.4213795,6.2967505,-0.15562311,0.17956513,-0.12210429,3,0.0036651916,-0.010995574,-0.002443461,0
1695104286383,3,7.2783732,0.33518824,6.277597,-0.1604115,0.15562311,-0.1604115,3,-0.0036651916,-0.015882496,0.012217305,0
1695104286395,3,7.252037,0.37349546,6.172252,-0.14604631,0.1412579,-0.09816227,3,-0.010995574,-0.018325957,0.02321288,0
1695104286405,3,7.345411,0.19153613,6.1938,-0.1436521,0.05267244,-0.11731588,3,-0.017104227,-0.015882496,0.03176499,0
1695104286414,3,7.297527,0.20111294,6.203377,-0.17238252,0.090979666,-0.22266077,3,-0.017104227,-0.010995574,0.032986723,0
1695104286424,3,7.2544312,0.20590134,6.1626754,-0.079008654,-0.088585466,-0.19871874,3,-0.013439035,-0.004886922,0.029321533,0
1695104286469,3,7.2664022,0.28491,6.232107,-0.12689269,-0.079008654,-0.18914193,3,-0.007330383,0.0036651916,0.02321288,0
1695104286470,3,7.189788,0.33997664,6.181829,-0.12689269,-0.079008654,-0.18914193,3,-0.007330383,0.0036651916,0.02321288,0
1695104286471,3,7.3310456,0.35913026,6.2392898,-0.12689269,-0.079008654,-0.18914193,3,-0.007330383,0.0036651916,0.02321288,0
1695104286471,3,7.2185183,0.36391866,6.315904,-0.12689269,-0.079008654,-0.18914193,3,-0.007330383,0.0036651916,0.02321288,0
1695104286481,3,7.2185183,0.32561144,6.279991,-0.093373865,0.08140286,-0.15322891,3,-0.002443461,0.008552114,0.009773844,0
1695104286485,3,7.225701,0.24899697,6.291962,-0.20590134,0.08619126,-0.076614454,3,-0.008552114,0.002443461,0.021991149,0
1695104286496,3,7.1610575,0.19153613,6.1938,-0.20590134,0.047884032,-0.11492168,3,-0.015882496,-0.002443461,0.029321533,0
1695104286504,3,7.189788,0.17717093,6.2608376,-0.19871874,-0.02633622,-0.10295067,3,-0.018325957,-0.0061086523,0.029321533,0
1695104286514,3,7.1993647,0.19393034,6.2512608,-0.2633622,-0.08140286,-0.20111294,3,-0.017104227,-0.008552114,0.021991149,0
1695104286524,3,7.275979,0.1412579,6.191406,-0.23463176,-0.090979666,-0.1316811,3,-0.013439035,-0.010995574,0.008552114,0
1695104286567,3,7.1849995,0.21787235,6.217742,-0.22505496,-0.07182605,-0.1412579,3,-0.007330383,-0.009773844,-0.0061086523,0
1695104286568,3,7.2233067,0.32561144,6.3087215,-0.22505496,-0.07182605,-0.1412579,3,-0.007330383,-0.009773844,-0.0061086523,0
1695104286568,3,7.240066,0.2657564,6.327875,-0.22505496,-0.07182605,-0.1412579,3,-0.007330383,-0.009773844,-0.0061086523,0
1695104286569,3,7.141904,0.34715924,6.2991447,-0.22505496,-0.07182605,-0.1412579,3,-0.007330383,-0.009773844,-0.0061086523,0
1695104286578,3,7.1754227,0.35194764,6.2823853,-0.18674773,-0.0023942017,-0.062249243,3,0.013439035,-0.052534413,-0.02443461,0
1695104286587,3,7.2664022,0.33758244,6.3422403,-0.2873042,0.074220255,-0.088585466,3,0.013439035,-0.07819075,-0.019547688,0
1695104286595,3,7.2687964,0.32321724,6.3422403,-0.25617957,0.076614454,-0.10295067,3,0.014660766,-0.11728613,-0.021991149,0
1695104286604,3,7.3166804,0.31603462,6.3925185,-0.16998832,0.059855044,-0.038307227,3,0.021991149,-0.16493362,-0.029321533,0
1695104286614,3,7.285556,0.29448682,6.4858923,-0.17238252,0.04070143,-0.031124622,3,0.030543262,-0.22113322,-0.040317107,0
1695104286628,3,7.3286514,0.22984336,6.4978633,-0.1340753,0.02873042,0.02633622,3,0.037873644,-0.28955013,-0.05375614,0
1695104286665,3,7.309498,0.22505496,6.4044895,-0.17238252,0.0023942017,0.12928689,3,0.043982297,-0.36896262,-0.07086037,0
1695104286666,3,7.216124,0.21308395,6.4523735,-0.17238252,0.0023942017,0.12928689,3,0.043982297,-0.36896262,-0.07086037,0
1695104286666,3,7.1873937,0.17477672,6.3661823,-0.17238252,0.0023942017,0.12928689,3,0.043982297,-0.36896262,-0.07086037,0
1695104286667,3,7.1993647,0.24660277,6.1100025,-0.17238252,0.0023942017,0.12928689,3,0.043982297,-0.36896262,-0.07086037,0
1695104286676,3,7.2592196,0.22505496,6.0405707,-0.3184288,-0.1388637,0.06703765,3,0.04886922,-0.7147123,-0.118507855,0
1695104286685,3,7.309498,0.30645782,5.959168,-0.31603462,-0.06943185,-0.17238252,3,0.04520403,-0.80878556,-0.13316862,0
1695104286696,3,7.489063,0.39743748,5.8226986,-0.2753332,-0.093373865,-0.22026655,3,0.05009095,-0.91629785,-0.15882497,0
1695104286704,3,7.4866686,0.39264908,5.7245364,-0.24899697,-0.011971008,-0.272939,3,0.062308256,-1.0213667,-0.20158553,0
1695104286714,3,7.6255326,0.4309563,5.626374,-0.10055647,0.06943185,-0.36870706,3,0.081855945,-1.1349876,-0.26145032,0
1695104286725,3,7.699753,0.50996494,5.461174,-0.14844051,0.05267244,-0.41180268,3,0.12583824,-1.2241739,-0.35063666,0
1695104286735,3,7.728483,0.62249243,5.33907,-0.05267244,0.074220255,-0.45729253,3,0.1881465,-1.3011429,-0.45570546,0
1695104286784,3,7.773973,0.6847417,5.159505,-0.031124622,0.12689269,-0.5506664,3,0.267559,-1.3475688,-0.57543504,0
1695104286785,3,7.764396,0.8283938,4.996699,-0.031124622,0.12689269,-0.5506664,3,0.267559,-1.3475688,-0.57543504,0
1695104286785,3,7.750031,0.93373865,4.8338933,-0.031124622,0.12689269,-0.5506664,3,0.267559,-1.3475688,-0.57543504,0
1695104286786,3,7.7069354,1.1228806,4.972757,-0.031124622,0.12689269,-0.5506664,3,0.267559,-1.3475688,-0.57543504,0
1695104286786,3,7.735666,1.0175357,4.5298295,-0.031124622,0.12689269,-0.5506664,3,0.267559,-1.3475688,-0.57543504,0
1695104286805,3,7.702147,1.1971009,4.3837833,-0.33518824,0.4141969,-0.58657944,3,0.6291912,-1.4355333,-0.9957104,0
1695104286806,3,7.9583263,1.5059528,4.187459,-0.33518824,0.4141969,-0.58657944,3,0.6291912,-1.4355333,-0.9957104,0
1695104286815,3,8.121132,1.70946,3.9552212,-0.46447513,0.2801216,-0.9576807,3,0.6768387,-1.3585643,-0.9260717,0
1695104286825,3,8.312668,1.8004397,3.964798,-0.2777274,0.46447513,-1.0247183,3,0.64996064,-1.2852604,-0.8381071,0
1695104286835,3,8.461109,1.9967642,3.6774938,-0.16519992,0.56982,-1.1540052,3,0.60231316,-1.1985176,-0.71837753,0
1695104286874,3,8.74123,2.0638018,3.7014358,-0.02873042,0.5602432,-1.0319009,3,0.5363397,-1.1081096,-0.56199604,0
1695104286875,3,8.896853,2.2290018,3.7804444,-0.02873042,0.5602432,-1.0319009,3,0.5363397,-1.1081096,-0.56199604,0
1695104286876,3,8.963891,2.2050598,3.7660792,-0.02873042,0.5602432,-1.0319009,3,0.5363397,-1.1081096,-0.56199604,0
1695104286876,3,8.980651,2.2481554,3.5553896,-0.02873042,0.5602432,-1.0319009,3,0.5363397,-1.1081096,-0.56199604,0
1695104286885,3,8.925584,2.1667526,3.3279405,0.4357447,0.7038953,-0.830788,3,0.06841691,-0.6585127,0.28710666,0
1695104286896,3,8.942344,1.8148049,3.2465374,0.40222588,0.6919243,-0.92895025,3,-0.09407325,-0.50701815,0.5180137,0
1695104286905,3,9.021352,1.6041151,3.1651347,0.29209262,0.5434838,-1.0223241,3,-0.26633725,-0.3555236,0.7110472,0
1695104286916,3,9.062054,1.3239936,3.1603463,0.25857377,0.1316811,-0.9792285,3,-0.42638394,-0.20158553,0.8576548,0
1695104286926,3,9.14585,1.1324574,3.13401,0.2801216,-0.088585466,-0.93852705,3,-0.5558874,-0.02443461,0.9615019,0
1695104286936,3,9.229648,0.9888053,3.1435869,0.272939,-0.37110126,-0.8355764,3,-0.6536258,0.18203785,1.0372492,0
1695104286985,3,9.239224,0.81402856,3.2632968,0.30406362,-0.50517654,-0.770933,3,-0.7281514,0.4251622,1.0934488,0
1695104286986,3,9.52174,0.79487497,3.4859576,0.30406362,-0.50517654,-0.770933,3,-0.7281514,0.4251622,1.0934488,0
1695104286986,3,9.648633,0.7541735,3.53863,0.30406362,-0.50517654,-0.770933,3,-0.7281514,0.4251622,1.0934488,0
1695104286986,3,9.694122,0.7469909,3.466804,0.30406362,-0.50517654,-0.770933,3,-0.7281514,0.4251622,1.0934488,0
1695104286987,3,9.77792,0.59376204,3.5098996,0.30406362,-0.50517654,-0.770933,3,-0.7281514,0.4251622,1.0934488,0
1695104286999,3,9.677363,0.6607997,3.3782187,1.0031705,-0.3184288,-0.7661445,3,-0.90041536,2.8368583,0.9737192,0
1695104287006,3,9.7563715,0.80924016,3.0573955,1.0031705,-0.3184288,-0.7661445,3,-0.90041536,2.8368583,0.9737192,0
1695104287016,3,9.672575,0.7517793,3.0550013,0.9624691,-0.1316811,-1.0414777,3,-0.90041536,2.8368583,0.9737192,0
1695104287026,3,6.5625067,-2.0614076,3.715801,1.151611,0.1388637,-1.5897499,3,-0.9309586,3.2131512,0.9334021,0
1695104287036,3,7.026982,-1.0654198,4.237737,1.1540052,0.18195933,-1.7621324,3,-0.9053023,3.6151006,0.8491027,0
1695104287081,3,8.104373,-1.4915876,5.463568,-1.8315643,-2.5210943,-1.3263878,3,-0.6218608,3.749491,0.50701815,0
1695104287081,3,9.088389,-1.8267759,6.739678,-1.8315643,-2.5210943,-1.3263878,3,-0.6218608,3.749491,0.50701815,0
1695104287082,3,7.9750857,-2.3439236,6.7803793,-1.8315643,-2.5210943,-1.3263878,3,-0.6218608,3.749491,0.50701815,0
1695104287082,3,7.0006456,-1.9512744,8.152257,-1.8315643,-2.5210943,-1.3263878,3,-0.6218608,3.749491,0.50701815,0
1695104287091,3,5.5976434,-0.8619126,9.9550905,0.17956513,-2.6384103,0.842759,3,0.9822713,2.756224,-1.7788396,0
1695104287098,3,4.0892963,0.7398083,9.902418,-0.6631939,-2.3463178,2.0518308,3,1.2290609,2.3176227,-1.78617,0
1695104287106,3,2.6503813,2.4253263,9.165004,-1.9249382,-1.3934253,3.691859,3,1.2657127,1.8716911,-1.5344934,0
1695104287116,3,1.5634137,3.7900212,8.238448,-3.2968156,0.06464344,3.4931402,3,1.1215485,1.4135422,-1.0445796,0
1695104287126,3,0.8475474,3.8714242,7.728483,-4.594473,1.6065093,2.60968,3,0.79290307,0.8784242,-0.4092797,0
1695104287136,3,1.5442601,3.0454245,7.764396,-5.5737014,2.8802247,1.5777789,3,0.36163223,0.34697145,0.13561209,0
1695104287183,3,2.858677,2.4660277,7.7332716,-6.2009826,2.8802247,0.9864111,3,0.02443461,-0.13927728,0.4373795,0
1695104287184,3,4.1276035,1.9057846,7.5584946,-6.2009826,2.8802247,0.9864111,3,0.02443461,-0.13927728,0.4373795,0
1695104287184,3,5.3582234,1.1707647,7.33344,-6.2009826,2.8802247,0.9864111,3,0.02443461,-0.13927728,0.4373795,0
1695104287184,3,6.5146227,0.7350199,6.9120603,-6.2009826,2.8802247,0.9864111,3,0.02443461,-0.13927728,0.4373795,0
1695104287194,3,7.529764,0.5746084,6.670246,-1.7860745,0.29927522,0.6751649,3,-0.2724459,-1.033584,0.45448375,0
1695104287198,3,8.202535,0.6392518,6.483498,-0.6895301,-0.08619126,0.31603462,3,-0.28588495,-1.0311406,0.43982297,0
1695104287206,3,8.535329,0.45729253,6.469133,0.24420857,-0.19153613,0.15322891,3,-0.29810223,-0.9615019,0.42760566,0
1695104287217,3,8.537724,0.29448682,6.409278,0.8643068,-0.08619126,0.021547815,3,-0.30543262,-0.8381071,0.40317106,0
1695104287227,3,8.37013,-0.095768064,6.169858,1.1372458,-0.21547815,0.06943185,3,-0.29810223,-0.6792821,0.36163223,0
1695104287237,3,7.920019,-0.49559975,6.0142345,1.115698,-0.34715924,0.035913024,3,-0.28221974,-0.50579643,0.30665436,0
1695104287278,3,7.4603324,-0.58418524,6.019023,0.92895025,-0.7062895,-0.18435353,3,-0.24556783,-0.34208453,0.24923302,0
1695104287278,3,7.0581064,-0.48123455,6.019023,0.92895025,-0.7062895,-0.18435353,3,-0.24556783,-0.34208453,0.24923302,0
1695104287279,3,6.71813,0.16759412,6.4763155,0.92895025,-0.7062895,-0.18435353,3,-0.24556783,-0.34208453,0.24923302,0
1695104287288,3,6.8210807,0.31364042,6.615179,-0.6799533,-0.6631939,-0.21787235,3,-0.02076942,0.07696902,0.02687807,0
1695104287298,3,6.873753,0.4261679,6.730101,-0.7302315,-0.29209262,0.11971009,3,0.02565634,0.13927728,-0.07819075,0
1695104287279,3,6.775591,-0.18195933,6.126762,0.92895025,-0.7062895,-0.18435353,3,-0.24556783,-0.34208453,0.24923302,0
1695104287307,3,6.8450227,0.50996494,6.8426285,-0.61291564,-0.1316811,0.24181437,3,0.058643065,0.18692477,-0.16982053,0
1695104287317,3,6.739678,0.6368576,6.8785415,-0.5434838,-0.019153614,0.33518824,3,0.07819075,0.22479841,-0.21746802,0
1695104287327,3,6.658275,0.82360536,6.955156,-0.5506664,0.05267244,0.4237737,3,0.07941248,0.23823744,-0.21624629,0
1695104287337,3,6.5385647,0.92416185,7.015011,-0.63206923,0.16759412,0.4333505,3,0.06841691,0.22479841,-0.17715092,0
1695104287381,3,6.4068837,0.9768343,7.019799,-0.6871359,0.33758244,0.48123455,3,0.052534413,0.18936823,-0.12095132,0
1695104287382,3,6.3709707,0.93852705,6.9886746,-0.6871359,0.33758244,0.48123455,3,0.052534413,0.18936823,-0.12095132,0
1695104287382,3,6.363788,0.8571242,7.015011,-0.6871359,0.33758244,0.48123455,3,0.052534413,0.18936823,-0.12095132,0
1695104287383,3,6.531382,0.8595184,7.0006456,-0.8834604,0.33039984,0.4357447,3,-0.034208454,-0.014660766,0.12461651,0
1695104287396,3,6.5601125,0.6679823,6.933608,-0.8834604,0.33039984,0.4357447,3,-0.034208454,-0.014660766,0.12461651,0
1695104287398,3,6.667852,0.5746084,6.871359,-0.6991069,0.33279404,0.40222588,3,-0.05131268,-0.04520403,0.16371189,0
1695104287407,3,6.5601125,0.40940848,6.825869,-0.6560113,0.14604631,0.3184288,3,-0.06352998,-0.058643065,0.18692477,0
1695104287417,3,6.6750345,0.31124622,6.825869,-0.5363012,0.059855044,0.24181437,3,-0.0720821,-0.06719518,0.19792034,0
